Folder: CV/TAP_Report/Data/MB_PB (part 3)

File: 100 uM MB 10mM PB  second ito_05_CV_C01_2.mpt
EC-Lab ASCII FILE
Nb header lines : 53

Cyclic Voltammetry

Run on channel : 1 (SN 0696)
User :
Electrode connection : standard
Ewe ctrl range : min = -10.00 V, max = 10.00 V
Ewe,I filtering : 50 kHz
Channel : Grounded
Acquisition started on : 05/17/2017 12:39:23
Saved on :
	File : 100 uM MB 10mM PB  second ito_05_CV_C01.mpr
	Directory : \\userfs\st659\w2k\EC-Lab\Data\ITO Characterisation 17-5-17\
	Host : 144.32.136.43
Device : SP-300 (SN 0182)
Address : USB
EC-Lab for windows v10.44 (software)
Internet server v10.44 (firmware)
Command interpretor v10.44 (firmware)
Electrode material :
Initial state :
Electrolyte :
Comments :
Cable : standard
Electrode surface area : 0.001 cm²
Characteristic mass : 0.001 g
Equivalent Weight : 0.000 g/eq.
Density : 0.000 g/cm3
Ei (V)              0.000
vs.                 Eoc
dE/dt               500.000
dE/dt unit          mV/s
E1 (V)              0.100
vs.                 Ref
Step percent        50
N                   10
E range min (V)     -10.000
E range max (V)     10.000
I Range             Auto
I Range min         Unset
I Range max         Unset
I Range init        Unset
Bandwidth           8
E2 (V)              -0.600
vs.                 Ref
nc cycles           2
Reverse Scan        1
Ef (V)              0.000
vs.                 Eoc

mode	ox/red	error	control changes	counter inc.	time/s	control/V	Ewe/V	<I>/mA	cycle number	(Q-Qo)/C	P/W
2	1	0	1	1	411.765	-0.60016	-0.600375	-0.00852829	2	-7.90065e-06	5.12017e-06
2	1	0	0	1	411.788	-0.588331	-0.588539	-0.00577953	2	-8.0553e-06	3.40148e-06
2	1	0	1	1	411.815	-0.575037	-0.575236	-0.00499529	2	-8.19689e-06	2.87347e-06
2	1	0	1	1	411.842	-0.561642	-0.561837	-0.00447066	2	-8.32264e-06	2.51179e-06
2	1	0	0	1	411.868	-0.548347	-0.548541	-0.00406403	2	-8.43521e-06	2.22929e-06
2	1	0	1	1	411.895	-0.535052	-0.53524	-0.00373097	2	-8.53798e-06	1.99696e-06
2	1	0	0	1	411.922	-0.521724	-0.521932	-0.00345105	2	-8.6327e-06	1.80121e-06
2	1	0	0	1	411.948	-0.508329	-0.50852	-0.00320146	2	-8.72098e-06	1.62801e-06
2	1	0	1	1	411.975	-0.495034	-0.495224	-0.00298188	2	-8.80242e-06	1.4767e-06
2	1	0	0	1	412.002	-0.481739	-0.48194	-0.00278806	2	-8.87838e-06	1.34368e-06
2	1	0	0	1	412.028	-0.468344	-0.468532	-0.00260032	2	-8.94973e-06	1.21833e-06
2	1	0	1	1	412.055	-0.455049	-0.455203	-0.00242482	2	-9.01576e-06	1.10378e-06
2	1	0	0	1	412.082	-0.441754	-0.441948	-0.00226591	2	-9.0774e-06	1.00141e-06
2	1	0	1	1	412.108	-0.428426	-0.428613	-0.002111	2	-9.13475e-06	9.04802e-07
2	1	0	1	1	412.135	-0.415031	-0.415217	-0.00195768	2	-9.1885e-06	8.12861e-07
2	1	0	0	1	412.162	-0.401736	-0.401946	-0.00181395	2	-9.23788e-06	7.29111e-07
2	1	0	1	1	412.188	-0.388441	-0.388642	-0.00166731	2	-9.28337e-06	6.47989e-07
2	1	0	1	1	412.215	-0.375046	-0.375224	-0.00152179	2	-9.32531e-06	5.7101e-07
2	1	0	0	1	412.242	-0.361751	-0.361953	-0.00138038	2	-9.36313e-06	4.99631e-07
2	1	0	1	1	412.268	-0.348423	-0.348603	-0.00122113	2	-9.39707e-06	4.2569e-07
2	1	0	0	1	412.295	-0.335128	-0.335285	-0.00107553	2	-9.42696e-06	3.60609e-07
2	1	0	0	1	412.322	-0.321733	-0.321878	-0.00091316	2	-9.45286e-06	2.93927e-07
2	1	0	1	1	412.348	-0.308438	-0.308597	-0.000735411	2	-9.47414e-06	2.26946e-07
2	1	0	0	1	412.375	-0.295143	-0.295286	-0.000536524	2	-9.49043e-06	1.58428e-07
2	1	0	0	1	412.402	-0.281748	-0.281872	-0.000311845	2	-9.5011e-06	8.79002e-08
2	1	0	1	1	412.428	-0.268453	-0.2686	-4.88781e-05	2	-9.50526e-06	1.31287e-08
2	1	0	0	1	412.455	-0.255125	-0.255284	0.000262531	2	-9.50168e-06	6.702e-08
2	1	0	1	1	412.481	-0.24183	-0.241988	0.000631369	2	-9.48915e-06	1.52784e-07
2	1	0	1	1	412.508	-0.228435	-0.228599	0.00106183	2	-9.46575e-06	2.42734e-07
2	1	0	0	1	412.535	-0.21514	-0.215311	0.00153214	2	-9.43038e-06	3.29888e-07
2	1	0	1	1	412.561	-0.201846	-0.202007	0.00203633	2	-9.38199e-06	4.11354e-07
2	1	0	1	1	412.588	-0.188451	-0.188603	0.00252221	2	-9.31982e-06	4.75698e-07
2	1	0	0	1	412.615	-0.175145	-0.175289	0.00299924	2	-9.24528e-06	5.25733e-07
2	1	0	1	1	412.641	-0.161827	-0.161953	0.00337729	2	-9.15954e-06	5.46961e-07
2	1	0	0	1	412.668	-0.148532	-0.148668	0.00367165	2	-9.06457e-06	5.45859e-07
2	1	0	0	1	412.695	-0.135138	-0.135256	0.00386451	2	-8.96272e-06	5.22699e-07
2	1	0	1	1	412.721	-0.121843	-0.121951	0.00390909	2	-8.85849e-06	4.76717e-07
2	1	0	0	1	412.748	-0.108548	-0.108651	0.00386871	2	-8.75416e-06	4.20342e-07
2	1	0	0	1	412.775	-0.0951528	-0.0952762	0.00375204	2	-8.65135e-06	3.5748e-07
2	1	0	1	1	412.801	-0.0818246	-0.0819536	0.00360025	2	-8.55287e-06	2.95054e-07
2	1	0	0	1	412.828	-0.0685297	-0.068654	0.00343591	2	-8.45872e-06	2.35889e-07
2	1	0	1	1	412.855	-0.0552347	-0.0553752	0.00329853	2	-8.36843e-06	1.82656e-07
2	1	0	1	1	412.881	-0.0418398	-0.0419653	0.00317902	2	-8.28089e-06	1.33409e-07
2	1	0	0	1	412.908	-0.0285449	-0.0286669	0.00308417	2	-8.19698e-06	8.84137e-08
2	1	0	1	1	412.935	-0.01525	-0.0153919	0.00299283	2	-8.11563e-06	4.60652e-08
2	1	0	1	1	412.961	-0.00185507	-0.00200536	0.0029238	2	-8.0355e-06	5.86328e-09
2	1	0	0	1	412.988	0.0114732	0.0113747	0.00287639	2	-7.95747e-06	3.27181e-08
2	1	0	1	1	413.015	0.0247681	0.024665	0.00283149	2	-7.88079e-06	6.98387e-08
2	1	0	0	1	413.041	0.038063	0.037973	0.00280706	2	-7.80507e-06	1.06592e-07
2	1	0	0	1	413.068	0.0514579	0.0513876	0.00277894	2	-7.72943e-06	1.42803e-07
2	1	0	1	1	413.095	0.0647528	0.0646913	0.00275512	2	-7.65511e-06	1.78233e-07
2	1	0	0	1	413.121	0.0780478	0.0779663	0.00275066	2	-7.58105e-06	2.14459e-07
2	1	0	1	1	413.148	0.091376	0.0912877	0.00275008	2	-7.50708e-06	2.51048e-07
2	0	0	0	1	413.165	0.100239	0.100127	0.00277724	2	-7.45818e-06	2.78078e-07
2	0	0	1	1	413.189	0.0883994	0.088252	0.000985338	2	-7.42586e-06	8.6958e-08
2	0	0	0	1	413.216	0.0750822	0.0749318	0.000627191	2	-7.40548e-06	4.69966e-08
2	0	0	1	1	413.242	0.0617873	0.0616548	0.000368049	2	-7.39314e-06	2.2692e-08
2	0	0	1	1	413.269	0.0483924	0.0482704	0.000148772	2	-7.38706e-06	7.1813e-09
2	0	0	0	1	413.296	0.0350975	0.0349484	-4.58644e-05	2	-7.38655e-06	1.60289e-09
2	0	0	1	1	413.322	0.0218026	0.0216347	-0.000219653	2	-7.39092e-06	4.75212e-09
2	0	0	1	1	413.349	0.00840768	0.00824964	-0.000389148	2	-7.39987e-06	3.21033e-09
2	0	0	0	1	413.376	-0.00492057	-0.00511568	-0.000544754	2	-7.41314e-06	2.78679e-09
2	0	0	1	1	413.402	-0.0182155	-0.0184049	-0.000694156	2	-7.43041e-06	1.27759e-08
2	0	0	0	1	413.429	-0.0315104	-0.0317107	-0.000841931	2	-7.45156e-06	2.66982e-08
2	0	0	0	1	413.456	-0.0449053	-0.0451078	-0.000985878	2	-7.4768e-06	4.44708e-08
2	0	0	1	1	413.482	-0.0582003	-0.0584223	-0.00112799	2	-7.50568e-06	6.58995e-08
2	0	0	0	1	413.509	-0.0714952	-0.0716988	-0.00127559	2	-7.53836e-06	9.1458e-08
2	0	0	0	1	413.536	-0.0848901	-0.0850763	-0.00142302	2	-7.57532e-06	1.21065e-07
2	0	0	1	1	413.562	-0.0982183	-0.0983985	-0.00158847	2	-7.61617e-06	1.56304e-07
2	0	0	0	1	413.589	-0.111513	-0.111687	-0.00176053	2	-7.66141e-06	1.96627e-07
2	0	0	1	1	413.615	-0.124808	-0.124979	-0.00196591	2	-7.7117e-06	2.45698e-07
2	0	0	1	1	413.642	-0.138203	-0.138388	-0.00220422	2	-7.76827e-06	3.05037e-07
2	0	0	0	1	413.669	-0.151498	-0.151693	-0.00249197	2	-7.83138e-06	3.78014e-07
2	0	0	1	1	413.695	-0.164793	-0.165002	-0.00285131	2	-7.90307e-06	4.70472e-07
2	0	0	0	1	413.722	-0.178121	-0.178335	-0.00330438	2	-7.98551e-06	5.89287e-07
2	0	0	0	1	413.749	-0.191516	-0.191724	-0.00382226	2	-8.08152e-06	7.32817e-07
2	0	0	1	1	413.775	-0.204811	-0.204999	-0.00440493	2	-8.19155e-06	9.03005e-07
2	0	0	0	1	413.802	-0.218106	-0.218319	-0.00503536	2	-8.31789e-06	1.09931e-06
2	0	0	0	1	413.829	-0.231501	-0.231741	-0.00567553	2	-8.46221e-06	1.31525e-06
2	0	0	1	1	413.855	-0.244796	-0.245027	-0.00625096	2	-8.62169e-06	1.53165e-06
2	0	0	0	1	413.882	-0.258091	-0.258309	-0.00674937	2	-8.79562e-06	1.74342e-06
2	0	0	1	1	413.909	-0.271419	-0.271608	-0.00712182	2	-8.98115e-06	1.93434e-06
2	0	0	1	1	413.935	-0.284814	-0.284992	-0.00734775	2	-9.17566e-06	2.09405e-06
2	0	0	0	1	413.962	-0.298109	-0.298352	-0.0074127	2	-9.37248e-06	2.21159e-06
2	0	0	1	1	413.989	-0.311404	-0.311645	-0.00733817	2	-9.56963e-06	2.2869e-06
2	0	0	1	1	414.015	-0.324799	-0.325014	-0.0071873	2	-9.76498e-06	2.33598e-06
2	0	0	0	1	414.042	-0.338094	-0.338307	-0.00700572	2	-9.95429e-06	2.37008e-06
2	0	0	1	1	414.069	-0.351422	-0.351673	-0.0068041	2	-1.01389e-05	2.39282e-06
2	0	0	0	1	414.095	-0.364717	-0.364953	-0.00665946	2	-1.03189e-05	2.43039e-06
2	0	0	0	1	414.122	-0.378112	-0.378345	-0.00653356	2	-1.04964e-05	2.47193e-06
2	0	0	1	1	414.149	-0.391407	-0.391661	-0.00642752	2	-1.06696e-05	2.51741e-06
2	0	0	0	1	414.175	-0.404702	-0.404936	-0.00636279	2	-1.08404e-05	2.57652e-06
2	0	0	0	1	414.202	-0.418096	-0.418347	-0.00632255	2	-1.10112e-05	2.64502e-06
2	0	0	1	1	414.229	-0.431391	-0.431626	-0.00629553	2	-1.11797e-05	2.71731e-06
2	0	0	0	1	414.255	-0.44472	-0.444953	-0.00629741	2	-1.13481e-05	2.80205e-06
2	0	0	1	1	414.282	-0.458014	-0.458246	-0.00631267	2	-1.15165e-05	2.89275e-06
2	0	0	1	1	414.309	-0.471409	-0.471671	-0.00636685	2	-1.16871e-05	3.00306e-06
2	0	0	0	1	414.335	-0.484704	-0.484949	-0.00639909	2	-1.18575e-05	3.10323e-06
2	0	0	1	1	414.362	-0.497999	-0.498255	-0.00645749	2	-1.20293e-05	3.21747e-06
2	0	0	1	1	414.389	-0.511394	-0.511667	-0.006566	2	-1.22048e-05	3.35961e-06
2	0	0	0	1	414.415	-0.524711	-0.524952	-0.00665613	2	-1.23812e-05	3.49415e-06
2	0	0	1	1	414.442	-0.538017	-0.538259	-0.00677319	2	-1.25607e-05	3.64573e-06
2	0	0	0	1	414.468	-0.551312	-0.551558	-0.00693222	2	-1.27437e-05	3.82352e-06
2	0	0	0	1	414.495	-0.564707	-0.564984	-0.00710411	2	-1.29324e-05	4.0137e-06
2	0	0	1	1	414.522	-0.578002	-0.578266	-0.00732003	2	-1.31249e-05	4.23293e-06
2	0	0	0	1	414.548	-0.591297	-0.591559	-0.0075568	2	-1.33233e-05	4.47029e-06
2	0	0	0	1	414.565	-0.599827	-0.600096	-0.00777497	2	-1.3454e-05	4.66573e-06

File: 100 uM MB 10mM PB  second ito_06_CV_C01_2.mpt
EC-Lab ASCII FILE
Nb header lines : 53

Cyclic Voltammetry

Run on channel : 1 (SN 0696)
User :
Electrode connection : standard
Ewe ctrl range : min = -10.00 V, max = 10.00 V
Ewe,I filtering : 50 kHz
Channel : Grounded
Acquisition started on : 05/17/2017 12:39:23
Saved on :
	File : 100 uM MB 10mM PB  second ito_06_CV_C01.mpr
	Directory : \\userfs\st659\w2k\EC-Lab\Data\ITO Characterisation 17-5-17\
	Host : 144.32.136.43
Device : SP-300 (SN 0182)
Address : USB
EC-Lab for windows v10.44 (software)
Internet server v10.44 (firmware)
Command interpretor v10.44 (firmware)
Electrode material :
Initial state :
Electrolyte :
Comments :
Cable : standard
Electrode surface area : 0.001 cm²
Characteristic mass : 0.001 g
Equivalent Weight : 0.000 g/eq.
Density : 0.000 g/cm3
Ei (V)              0.000
vs.                 Eoc
dE/dt               1000.000
dE/dt unit          mV/s
E1 (V)              0.100
vs.                 Ref
Step percent        50
N                   10
E range min (V)     -10.000
E range max (V)     10.000
I Range             Auto
I Range min         Unset
I Range max         Unset
I Range init        Unset
Bandwidth           8
E2 (V)              -0.600
vs.                 Ref
nc cycles           2
Reverse Scan        1
Ef (V)              0.000
vs.                 Eoc

mode	ox/red	error	control changes	counter inc.	time/s	control/V	Ewe/V	<I>/mA	cycle number	(Q-Qo)/C	P/W
2	1	0	1	1	420.577	-0.60016	-0.600432	-0.0110936	2	-5.48557e-06	6.66096e-06
2	1	0	1	1	420.589	-0.588265	-0.588483	-0.00686849	2	-5.58494e-06	4.04199e-06
2	1	0	1	1	420.602	-0.57507	-0.575292	-0.00542876	2	-5.66452e-06	3.12312e-06
2	1	0	0	1	420.615	-0.561675	-0.561882	-0.00459322	2	-5.73087e-06	2.58085e-06
2	1	0	1	1	420.629	-0.54828	-0.54847	-0.00399201	2	-5.78782e-06	2.1895e-06
2	1	0	1	1	420.642	-0.535085	-0.535284	-0.00353616	2	-5.83699e-06	1.89285e-06
2	1	0	0	1	420.655	-0.52169	-0.52192	-0.00315749	2	-5.88138e-06	1.64796e-06
2	1	0	1	1	420.669	-0.508295	-0.508516	-0.00283266	2	-5.92106e-06	1.44045e-06
2	1	0	1	1	420.682	-0.4951	-0.495277	-0.00254934	2	-5.9562e-06	1.26263e-06
2	1	0	0	1	420.695	-0.481705	-0.481923	-0.00230377	2	-5.98833e-06	1.11024e-06
2	1	0	1	1	420.709	-0.468311	-0.468533	-0.00206922	2	-6.01723e-06	9.69497e-07
2	1	0	1	1	420.722	-0.455116	-0.455295	-0.00185566	2	-6.04273e-06	8.44874e-07
2	1	0	0	1	420.735	-0.441721	-0.441924	-0.00166	2	-6.06592e-06	7.33596e-07
2	1	0	0	1	420.749	-0.428459	-0.428664	-0.00146507	2	-6.08609e-06	6.28023e-07
2	1	0	1	1	420.762	-0.415064	-0.415283	-0.00128463	2	-6.10417e-06	5.33486e-07
2	1	0	1	1	420.806	-0.371481	-0.371669	-0.000701636	2	-6.15061e-06	2.60777e-07
2	1	0	0	1	420.819	-0.358086	-0.358287	-0.000523129	2	-6.15862e-06	1.8743e-07
2	1	0	1	1	420.832	-0.344691	-0.344897	-0.000337761	2	-6.16419e-06	1.16492e-07
2	1	0	1	1	420.846	-0.331496	-0.33166	-0.000142261	2	-6.16717e-06	4.71823e-08
2	1	0	0	1	420.859	-0.318101	-0.318266	6.44234e-05	2	-6.16746e-06	2.05038e-08
2	1	0	1	1	420.872	-0.304706	-0.30486	0.000300915	2	-6.16481e-06	9.17372e-08
2	1	0	1	1	420.886	-0.291511	-0.291651	0.000569306	2	-6.15884e-06	1.66039e-07
2	1	0	0	1	420.899	-0.278116	-0.278265	0.000887458	2	-6.14893e-06	2.46949e-07
2	1	0	1	1	420.912	-0.264722	-0.264876	0.00124997	2	-6.13448e-06	3.31086e-07
2	1	0	1	1	420.926	-0.25146	-0.251631	0.00166725	2	-6.11498e-06	4.1953e-07
2	1	0	0	1	420.939	-0.238065	-0.238242	0.00216616	2	-6.08914e-06	5.16071e-07
2	1	0	0	1	420.952	-0.22487	-0.22506	0.00275555	2	-6.05654e-06	6.20164e-07
2	1	0	1	1	420.966	-0.211475	-0.211631	0.00339217	2	-6.01522e-06	7.17887e-07
2	1	0	0	1	420.979	-0.19808	-0.198217	0.00406506	2	-5.96509e-06	8.05763e-07
2	1	0	0	1	420.992	-0.184885	-0.185054	0.00466856	2	-5.90711e-06	8.63935e-07
2	1	0	1	1	421.006	-0.17149	-0.171635	0.00526526	2	-5.84024e-06	9.03701e-07
2	1	0	0	1	421.019	-0.158096	-0.158228	0.00572619	2	-5.76642e-06	9.06045e-07
2	1	0	0	1	421.032	-0.144901	-0.145041	0.00612856	2	-5.68778e-06	8.88892e-07
2	1	0	1	1	421.046	-0.131506	-0.13165	0.00636773	2	-5.60392e-06	8.38309e-07
2	1	0	0	1	421.059	-0.118111	-0.118232	0.00648969	2	-5.5175e-06	7.67289e-07
2	1	0	0	1	421.072	-0.104916	-0.105042	0.00649059	2	-5.43158e-06	6.81783e-07
2	1	0	1	1	421.086	-0.0915209	-0.0916151	0.00639328	2	-5.34505e-06	5.85721e-07
2	1	0	1	1	421.099	-0.0782593	-0.0784046	0.00619818	2	-5.26171e-06	4.85966e-07
2	1	0	0	1	421.112	-0.0648644	-0.0649886	0.0060295	2	-5.17937e-06	3.91849e-07
2	1	0	1	1	421.126	-0.0514695	-0.0516211	0.00576531	2	-5.10006e-06	2.97611e-07
2	1	0	1	1	421.139	-0.0382745	-0.0384031	0.00558946	2	-5.02495e-06	2.14652e-07
2	1	0	0	1	421.152	-0.0248796	-0.0249937	0.00541614	2	-4.95101e-06	1.35369e-07
2	1	0	1	1	421.166	-0.0114847	-0.0116158	0.00524756	2	-4.87947e-06	6.09546e-08
2	1	0	1	1	421.179	0.00171023	0.00157547	0.00511982	2	-4.81089e-06	8.06612e-09
2	1	0	0	1	421.192	0.0151051	0.0150366	0.00500612	2	-4.74285e-06	7.52752e-08
2	1	0	1	1	421.206	0.0285	0.0284004	0.00489335	2	-4.67644e-06	1.38973e-07
2	1	0	1	1	421.219	0.041695	0.0415732	0.00483411	2	-4.61202e-06	2.0097e-07
2	1	0	0	1	421.232	0.0550899	0.0550121	0.00476784	2	-4.54755e-06	2.62289e-07
2	1	0	1	1	421.246	0.0684847	0.0684058	0.00470145	2	-4.4838e-06	3.21607e-07
2	1	0	1	1	421.259	0.0816797	0.0816004	0.00466826	2	-4.42183e-06	3.80932e-07
2	1	0	0	1	421.272	0.0951412	0.0950317	0.00462964	2	-4.35939e-06	4.39963e-07
2	0	0	1	1	421.279	0.0984733	0.0984055	0.00354257	2	-4.3296e-06	3.48609e-07
2	0	0	0	1	421.292	0.0850118	0.084876	0.00126377	2	-4.30295e-06	1.07264e-07
2	0	0	0	1	421.306	0.0718168	0.0716764	0.000691625	2	-4.29058e-06	4.95732e-08
2	0	0	1	1	421.319	0.0584219	0.0583012	0.000297447	2	-4.28429e-06	1.73415e-08
2	0	0	0	1	421.332	0.045027	0.0448818	-3.22818e-05	2	-4.2828e-06	1.44886e-09
2	0	0	0	1	421.346	0.0318321	0.0316611	-0.000305621	2	-4.28526e-06	9.67632e-09
2	0	0	1	1	421.359	0.0184372	0.0182772	-0.000550597	2	-4.29124e-06	1.00634e-08
2	0	0	0	1	421.372	0.00504229	0.00488	-0.000782037	2	-4.30041e-06	3.81634e-09
2	0	0	0	1	421.386	-0.00815267	-0.00835173	-0.000998211	2	-4.31242e-06	8.33678e-09
2	0	0	1	1	421.399	-0.0215476	-0.0217326	-0.00120146	2	-4.3274e-06	2.6111e-08
2	0	0	0	1	421.412	-0.0349425	-0.0351406	-0.00140863	2	-4.34511e-06	4.95003e-08
2	0	0	0	1	421.426	-0.0481374	-0.0483385	-0.00160027	2	-4.36518e-06	7.73545e-08
2	0	0	1	1	421.439	-0.0615323	-0.061739	-0.00180007	2	-4.38821e-06	1.11135e-07
2	0	0	0	1	421.452	-0.0749272	-0.0751418	-0.0020074	2	-4.4139e-06	1.5084e-07
2	0	0	0	1	421.466	-0.0881888	-0.0883576	-0.00223325	2	-4.44201e-06	1.97324e-07
2	0	0	1	1	421.479	-0.101584	-0.101758	-0.00245864	2	-4.47357e-06	2.50186e-07
2	0	0	1	1	421.492	-0.114779	-0.114954	-0.00270652	2	-4.50786e-06	3.11124e-07
2	0	0	0	1	421.506	-0.128174	-0.128377	-0.00301807	2	-4.5464e-06	3.8745e-07
2	0	0	1	1	421.519	-0.141568	-0.141771	-0.00335151	2	-4.5893e-06	4.75146e-07
2	0	0	1	1	421.532	-0.154763	-0.154965	-0.00375804	2	-4.63637e-06	5.82363e-07
2	0	0	0	1	421.546	-0.168158	-0.168391	-0.00426529	2	-4.69029e-06	7.18234e-07
2	0	0	1	1	421.559	-0.181553	-0.18179	-0.00485207	2	-4.75149e-06	8.82059e-07
2	0	0	1	1	421.572	-0.194748	-0.194974	-0.00550758	2	-4.82001e-06	1.07383e-06
2	0	0	0	1	421.586	-0.208143	-0.208348	-0.00625659	2	-4.899e-06	1.30355e-06
2	0	0	1	1	421.599	-0.221538	-0.221767	-0.00702813	2	-4.98839e-06	1.5586e-06
2	0	0	1	1	421.612	-0.234733	-0.234953	-0.00780225	2	-5.08657e-06	1.83316e-06
2	0	0	0	1	421.626	-0.248128	-0.248368	-0.00853552	2	-5.19638e-06	2.11995e-06
2	0	0	1	1	421.639	-0.261456	-0.261664	-0.00917874	2	-5.31453e-06	2.40175e-06
2	0	0	1	1	421.652	-0.274784	-0.275005	-0.00972881	2	-5.44058e-06	2.67547e-06
2	0	0	0	1	421.666	-0.288179	-0.288396	-0.0101781	2	-5.57404e-06	2.93532e-06
2	0	0	0	1	421.709	-0.331363	-0.331553	-0.0104458	2	-6.01899e-06	3.46334e-06
2	0	0	1	1	421.722	-0.344758	-0.34498	-0.0102938	2	-6.15841e-06	3.55116e-06
2	0	0	0	1	421.736	-0.358153	-0.358385	-0.0100983	2	-6.2955e-06	3.61909e-06
2	0	0	0	1	421.749	-0.371348	-0.371557	-0.00986118	2	-6.42769e-06	3.66399e-06
2	0	0	1	1	421.762	-0.384742	-0.384991	-0.00965905	2	-6.55873e-06	3.71864e-06
2	0	0	0	1	421.776	-0.398137	-0.398383	-0.00948563	2	-6.68728e-06	3.77891e-06
2	0	0	0	1	421.789	-0.411332	-0.411559	-0.00934802	2	-6.8119e-06	3.84726e-06
2	0	0	1	1	421.802	-0.424727	-0.424952	-0.00920925	2	-6.93634e-06	3.91349e-06
2	0	0	0	1	421.816	-0.438079	-0.438292	-0.00914256	2	-7.05871e-06	4.00711e-06
2	0	0	0	1	421.829	-0.451384	-0.451573	-0.00908235	2	-7.1802e-06	4.10134e-06
2	0	0	1	1	421.842	-0.464779	-0.464989	-0.00905645	2	-7.30198e-06	4.21115e-06
2	0	0	1	1	421.855	-0.477974	-0.478199	-0.0090662	2	-7.42192e-06	4.33545e-06
2	0	0	0	1	421.869	-0.491368	-0.491599	-0.00905177	2	-7.54359e-06	4.44984e-06
2	0	0	1	1	421.882	-0.504763	-0.504997	-0.00908989	2	-7.66552e-06	4.59037e-06
2	0	0	1	1	421.895	-0.517958	-0.51818	-0.00915081	2	-7.78625e-06	4.74176e-06
2	0	0	0	1	421.909	-0.531353	-0.531561	-0.00922741	2	-7.90976e-06	4.90493e-06
2	0	0	1	1	421.922	-0.544748	-0.544956	-0.00936443	2	-8.03455e-06	5.1032e-06
2	0	0	1	1	421.935	-0.557943	-0.558176	-0.00948083	2	-8.15915e-06	5.29197e-06
2	0	0	0	1	421.949	-0.571338	-0.571576	-0.00968323	2	-8.28794e-06	5.5347e-06
2	0	0	1	1	421.962	-0.584733	-0.58495	-0.00989397	2	-8.41923e-06	5.78747e-06
2	0	0	1	1	421.975	-0.597928	-0.598153	-0.0101659	2	-8.55198e-06	6.08075e-06
2	0	0	0	1	421.977	-0.599827	-0.600054	-0.0102217	2	-8.57137e-06	6.1336e-06