Folder: CV/TAP_Report/Data/MB_SHU (part 3)

File: 100 uM MB 10mM PB Second ITO_05_CV_C01_2.mpt
EC-Lab ASCII FILE
Nb header lines : 53

Cyclic Voltammetry

Run on channel : 1 (SN 0696)
User :
Electrode connection : standard
Ewe ctrl range : min = -10.00 V, max = 10.00 V
Ewe,I filtering : 50 kHz
Channel : Grounded
Acquisition started on : 05/17/2017 12:14:48
Saved on :
	File : 100 uM MB 10mM PB Second ITO_05_CV_C01.mpr
	Directory : \\userfs\st659\w2k\EC-Lab\Data\ITO Characterisation 17-5-17\
	Host : 144.32.136.43
Device : SP-300 (SN 0182)
Address : USB
EC-Lab for windows v10.44 (software)
Internet server v10.44 (firmware)
Command interpretor v10.44 (firmware)
Electrode material :
Initial state :
Electrolyte :
Comments :
Cable : standard
Electrode surface area : 0.001 cm²
Characteristic mass : 0.001 g
Equivalent Weight : 0.000 g/eq.
Density : 0.000 g/cm3
Ei (V)              0.000
vs.                 Eoc
dE/dt               500.000
dE/dt unit          mV/s
E1 (V)              0.100
vs.                 Ref
Step percent        50
N                   10
E range min (V)     -10.000
E range max (V)     10.000
I Range             Auto
I Range min         Unset
I Range max         Unset
I Range init        Unset
Bandwidth           8
E2 (V)              -0.600
vs.                 Ref
nc cycles           2
Reverse Scan        1
Ef (V)              0.000
vs.                 Eoc

mode	ox/red	error	control changes	counter inc.	time/s	control/V	Ewe/V	<I>/mA	cycle number	(Q-Qo)/C	P/W
2	1	0	0	1	409.789	-0.60016	-0.600481	-0.00871451	2	-8.11474e-06	5.2329e-06
2	1	0	1	1	409.813	-0.588365	-0.588566	-0.00590026	2	-8.2705e-06	3.47269e-06
2	1	0	1	1	409.839	-0.57497	-0.575154	-0.00509329	2	-8.41594e-06	2.92943e-06
2	1	0	0	1	409.866	-0.561675	-0.561847	-0.00454112	2	-8.54278e-06	2.55141e-06
2	1	0	1	1	409.893	-0.54838	-0.548532	-0.00411075	2	-8.65667e-06	2.25488e-06
2	1	0	1	1	409.919	-0.535007	-0.535155	-0.00374832	2	-8.76052e-06	2.00593e-06
2	1	0	0	1	409.946	-0.521657	-0.521829	-0.00345297	2	-8.85571e-06	1.80186e-06
2	1	0	1	1	409.973	-0.508362	-0.508558	-0.00319649	2	-8.94315e-06	1.6256e-06
2	1	0	0	1	409.999	-0.495067	-0.495232	-0.00296494	2	-9.02402e-06	1.46833e-06
2	1	0	0	1	410.026	-0.481672	-0.481847	-0.0027556	2	-9.09967e-06	1.32778e-06
2	1	0	1	1	410.053	-0.468377	-0.468558	-0.00256287	2	-9.1694e-06	1.20085e-06
2	1	0	0	1	410.079	-0.455082	-0.455238	-0.00238334	2	-9.23419e-06	1.08499e-06
2	1	0	1	1	410.106	-0.441754	-0.441927	-0.0022192	2	-9.29443e-06	9.80723e-07
2	1	0	1	1	410.133	-0.428359	-0.428526	-0.00205916	2	-9.3508e-06	8.82402e-07
2	1	0	0	1	410.159	-0.415064	-0.415252	-0.0019104	2	-9.40265e-06	7.93296e-07
2	1	0	1	1	410.186	-0.401769	-0.401961	-0.00176493	2	-9.45054e-06	7.09434e-07
2	1	0	1	1	410.213	-0.388374	-0.388547	-0.00162233	2	-9.49492e-06	6.3035e-07
2	1	0	0	1	410.239	-0.375079	-0.375252	-0.00148126	2	-9.53518e-06	5.55845e-07
2	1	0	1	1	410.266	-0.361773	-0.361941	-0.00133914	2	-9.57174e-06	4.84688e-07
2	1	0	0	1	410.292	-0.348456	-0.348641	-0.00120132	2	-9.6046e-06	4.1883e-07
2	1	0	0	1	410.319	-0.335061	-0.335181	-0.00105626	2	-9.63391e-06	3.5404e-07
2	1	0	1	1	410.346	-0.321766	-0.321905	-0.000911804	2	-9.6592e-06	2.93514e-07
2	1	0	0	1	410.372	-0.308472	-0.308617	-0.00075437	2	-9.68049e-06	2.32811e-07
2	1	0	0	1	410.399	-0.295077	-0.295211	-0.0005688	2	-9.69743e-06	1.67916e-07
2	1	0	1	1	410.426	-0.281782	-0.281886	-0.000374703	2	-9.70918e-06	1.05624e-07
2	1	0	0	1	410.452	-0.268453	-0.268585	-0.000132714	2	-9.71504e-06	3.5645e-08
2	1	0	1	1	410.479	-0.255159	-0.2553	0.000173161	2	-9.71363e-06	4.42079e-08
2	1	0	1	1	410.506	-0.241764	-0.241898	0.00056781	2	-9.70293e-06	1.37352e-07
2	1	0	0	1	410.532	-0.228469	-0.228621	0.00105904	2	-9.68052e-06	2.42119e-07
2	1	0	1	1	410.559	-0.215174	-0.215334	0.0016828	2	-9.6432e-06	3.62364e-07
2	1	0	1	1	410.586	-0.201779	-0.20189	0.00244858	2	-9.58698e-06	4.94343e-07
2	1	0	0	1	410.612	-0.188484	-0.188645	0.00329443	2	-9.50983e-06	6.21478e-07
2	1	0	1	1	410.639	-0.175156	-0.175296	0.00420997	2	-9.40894e-06	7.37991e-07
2	1	0	0	1	410.666	-0.161861	-0.161991	0.00506192	2	-9.28442e-06	8.19988e-07
2	1	0	0	1	410.692	-0.148466	-0.148559	0.00571368	2	-9.13839e-06	8.48821e-07
2	1	0	1	1	410.719	-0.135171	-0.135282	0.00603031	2	-8.9805e-06	8.15792e-07
2	1	0	0	1	410.746	-0.121876	-0.121982	0.00600287	2	-8.81864e-06	7.32244e-07
2	1	0	0	1	410.772	-0.108481	-0.108568	0.00569202	2	-8.66045e-06	6.1797e-07
2	1	0	1	1	410.799	-0.0951528	-0.0952569	0.00526868	2	-8.51369e-06	5.01878e-07
2	1	0	0	1	410.826	-0.0818579	-0.0819677	0.00482177	2	-8.37878e-06	3.95229e-07
2	1	0	1	1	410.852	-0.068563	-0.0686687	0.0044443	2	-8.25484e-06	3.05184e-07
2	1	0	1	1	410.879	-0.0551681	-0.0552942	0.00413153	2	-8.13932e-06	2.28449e-07
2	1	0	0	1	410.906	-0.0418731	-0.042002	0.00389034	2	-8.03192e-06	1.63402e-07
2	1	0	1	1	410.932	-0.0285782	-0.0286722	0.00369724	2	-7.93024e-06	1.06008e-07
2	1	0	1	1	410.959	-0.0151833	-0.0152959	0.00354528	2	-7.83242e-06	5.42283e-08
2	1	0	0	1	410.986	-0.00185507	-0.00198997	0.00342043	2	-7.73893e-06	6.80655e-09
2	1	0	1	1	411.012	0.0114399	0.0113542	0.00331833	2	-7.64834e-06	3.76769e-08
2	1	0	0	1	411.039	0.0247348	0.0246594	0.00324358	2	-7.56014e-06	7.99849e-08
2	1	0	0	1	411.066	0.0381297	0.0380483	0.00318037	2	-7.47318e-06	1.21007e-07
2	1	0	1	1	411.092	0.0514246	0.0513552	0.00313003	2	-7.38835e-06	1.60743e-07
2	1	0	0	1	411.119	0.0647195	0.0646491	0.00308999	2	-7.3047e-06	1.99765e-07
2	1	0	1	1	411.145	0.0780478	0.0779905	0.00307074	2	-7.22191e-06	2.39489e-07
2	1	0	1	1	411.172	0.0914427	0.0913717	0.00303797	2	-7.13917e-06	2.77585e-07
2	0	0	0	1	411.193	0.0980735	0.0979283	0.00200997	2	-7.07834e-06	1.96833e-07
2	0	0	1	1	411.22	0.0847785	0.0846152	0.00117561	2	-7.04026e-06	9.94742e-08
2	0	0	0	1	411.246	0.0714503	0.0712902	0.000824463	2	-7.01496e-06	5.87761e-08
2	0	0	0	1	411.273	0.0580554	0.0579296	0.000563825	2	-6.99748e-06	3.26622e-08
2	0	0	1	1	411.3	0.0447605	0.0445971	0.00033466	2	-6.9866e-06	1.49248e-08
2	0	0	0	1	411.326	0.0314655	0.0312957	0.000144269	2	-6.98122e-06	4.515e-09
2	0	0	0	1	411.353	0.0180707	0.0179033	-3.2798e-05	2	-6.98075e-06	5.87193e-10
2	0	0	1	1	411.38	0.00477573	0.00461088	-0.000198602	2	-6.98486e-06	9.1573e-10
2	0	0	0	1	411.406	-0.0085192	-0.00873607	-0.000358434	2	-6.99334e-06	3.1313e-09
2	0	0	1	1	411.433	-0.0218475	-0.022042	-0.00050822	2	-7.0059e-06	1.12022e-08
2	0	0	1	1	411.46	-0.0352423	-0.0354532	-0.000662069	2	-7.02258e-06	2.34725e-08
2	0	0	0	1	411.486	-0.0485373	-0.0487598	-0.000812088	2	-7.04316e-06	3.95972e-08
2	0	0	1	1	411.513	-0.0618322	-0.0620529	-0.000965509	2	-7.06776e-06	5.99127e-08
2	0	0	1	1	411.54	-0.0752271	-0.0754504	-0.00113289	2	-7.09679e-06	8.54769e-08
2	0	0	0	1	411.566	-0.088522	-0.0887215	-0.0013168	2	-7.13027e-06	1.16829e-07
2	0	0	1	1	411.593	-0.10185	-0.102049	-0.00153882	2	-7.16914e-06	1.57035e-07
2	0	0	0	1	411.62	-0.115145	-0.115319	-0.00181289	2	-7.2145e-06	2.09061e-07
2	0	0	0	1	411.646	-0.12854	-0.128745	-0.00217099	2	-7.26865e-06	2.79504e-07
2	0	0	1	1	411.673	-0.141835	-0.142048	-0.00263069	2	-7.33326e-06	3.73683e-07
2	0	0	0	1	411.7	-0.15513	-0.155336	-0.00321117	2	-7.4117e-06	4.98811e-07
2	0	0	0	1	411.726	-0.168525	-0.168768	-0.00392796	2	-7.50813e-06	6.62912e-07
2	0	0	1	1	411.753	-0.18182	-0.182066	-0.00475502	2	-7.62433e-06	8.65727e-07
2	0	0	0	1	411.78	-0.195148	-0.195365	-0.0056509	2	-7.76363e-06	1.10399e-06
2	0	0	1	1	411.806	-0.208443	-0.208659	-0.00655497	2	-7.92698e-06	1.36775e-06
2	0	0	1	1	411.833	-0.221838	-0.222076	-0.00737693	2	-8.11493e-06	1.63824e-06
2	0	0	0	1	411.86	-0.235133	-0.235369	-0.00794939	2	-8.32033e-06	1.87104e-06
2	0	0	1	1	411.886	-0.248428	-0.248662	-0.00825807	2	-8.53759e-06	2.05347e-06
2	0	0	1	1	411.913	-0.261823	-0.262063	-0.00827917	2	-8.76072e-06	2.16966e-06
2	0	0	0	1	411.94	-0.275151	-0.275377	-0.00810657	2	-8.97981e-06	2.23237e-06
2	0	0	1	1	411.966	-0.288446	-0.288675	-0.00777822	2	-9.19194e-06	2.24538e-06
2	0	0	0	1	411.993	-0.301741	-0.301988	-0.00742997	2	-9.39509e-06	2.24376e-06
2	0	0	0	1	412.02	-0.315136	-0.315397	-0.00710265	2	-9.59061e-06	2.24015e-06
2	0	0	1	1	412.046	-0.328431	-0.328672	-0.00683874	2	-9.77666e-06	2.2477e-06
2	0	0	0	1	412.073	-0.341726	-0.342015	-0.00662772	2	-9.95646e-06	2.26678e-06
2	0	0	0	1	412.1	-0.35512	-0.355398	-0.00645324	2	-1.01325e-05	2.29347e-06
2	0	0	1	1	412.126	-0.368449	-0.368704	-0.0063367	2	-1.03036e-05	2.33637e-06
2	0	0	0	1	412.153	-0.381744	-0.382025	-0.00627061	2	-1.04722e-05	2.39553e-06
2	0	0	1	1	412.179	-0.395039	-0.39532	-0.00620866	2	-1.06391e-05	2.45441e-06
2	0	0	1	1	412.206	-0.408433	-0.408709	-0.00619008	2	-1.08062e-05	2.52994e-06
2	0	0	0	1	412.233	-0.421728	-0.422008	-0.0061857	2	-1.09718e-05	2.61041e-06
2	0	0	1	1	412.259	-0.435023	-0.435285	-0.00619753	2	-1.11374e-05	2.69769e-06
2	0	0	1	1	412.286	-0.448385	-0.448628	-0.00623128	2	-1.13042e-05	2.79553e-06
2	0	0	0	1	412.313	-0.461746	-0.461999	-0.0062738	2	-1.1472e-05	2.89849e-06
2	0	0	1	1	412.339	-0.475041	-0.475291	-0.00632837	2	-1.16405e-05	3.00782e-06
2	0	0	0	1	412.366	-0.488336	-0.488585	-0.00638969	2	-1.18107e-05	3.12191e-06
2	0	0	0	1	412.393	-0.501731	-0.501998	-0.00648567	2	-1.19842e-05	3.25579e-06
2	0	0	1	1	412.419	-0.515026	-0.515279	-0.00659002	2	-1.21591e-05	3.3957e-06
2	0	0	0	1	412.446	-0.528321	-0.528578	-0.00671427	2	-1.23371e-05	3.54902e-06
2	0	0	1	1	412.473	-0.541649	-0.54189	-0.00687858	2	-1.25188e-05	3.72744e-06
2	0	0	1	1	412.499	-0.555044	-0.555319	-0.00705839	2	-1.27064e-05	3.91966e-06
2	0	0	0	1	412.526	-0.568339	-0.568617	-0.00726775	2	-1.28979e-05	4.13256e-06
2	0	0	1	1	412.553	-0.581634	-0.581897	-0.00752395	2	-1.30957e-05	4.37816e-06
2	0	0	1	1	412.579	-0.595029	-0.595301	-0.0078349	2	-1.33024e-05	4.66412e-06
2	0	0	0	1	412.589	-0.599827	-0.60005	-0.00792919	2	-1.33784e-05	4.75791e-06

File: 100 uM MB 10mM PB Second ITO_06_CV_C01_2.mpt
EC-Lab ASCII FILE
Nb header lines : 53

Cyclic Voltammetry

Run on channel : 1 (SN 0696)
User :
Electrode connection : standard
Ewe ctrl range : min = -10.00 V, max = 10.00 V
Ewe,I filtering : 50 kHz
Channel : Grounded
Acquisition started on : 05/17/2017 12:14:48
Saved on :
	File : 100 uM MB 10mM PB Second ITO_06_CV_C01.mpr
	Directory : \\userfs\st659\w2k\EC-Lab\Data\ITO Characterisation 17-5-17\
	Host : 144.32.136.43
Device : SP-300 (SN 0182)
Address : USB
EC-Lab for windows v10.44 (software)
Internet server v10.44 (firmware)
Command interpretor v10.44 (firmware)
Electrode material :
Initial state :
Electrolyte :
Comments :
Cable : standard
Electrode surface area : 0.001 cm²
Characteristic mass : 0.001 g
Equivalent Weight : 0.000 g/eq.
Density : 0.000 g/cm3
Ei (V)              0.000
vs.                 Eoc
dE/dt               1000.000
dE/dt unit          mV/s
E1 (V)              0.100
vs.                 Ref
Step percent        50
N                   10
E range min (V)     -10.000
E range max (V)     10.000
I Range             Auto
I Range min         Unset
I Range max         Unset
I Range init        Unset
Bandwidth           8
E2 (V)              -0.600
vs.                 Ref
nc cycles           2
Reverse Scan        1
Ef (V)              0.000
vs.                 Eoc

mode	ox/red	error	control changes	counter inc.	time/s	control/V	Ewe/V	<I>/mA	cycle number	(Q-Qo)/C	P/W
2	1	0	0	1	418.566	-0.60016	-0.60034	-0.0114342	2	-5.7253e-06	6.86442e-06
2	1	0	1	1	418.574	-0.591597	-0.591819	-0.007338	2	-5.7984e-06	4.34277e-06
2	1	0	1	1	418.584	-0.581601	-0.581804	-0.00604531	2	-5.86408e-06	3.51719e-06
2	1	0	1	1	418.594	-0.571605	-0.571808	-0.00527398	2	-5.92e-06	3.01571e-06
2	1	0	1	1	418.604	-0.561608	-0.561821	-0.00469297	2	-5.96927e-06	2.63661e-06
2	1	0	1	1	418.614	-0.551612	-0.551806	-0.00421967	2	-6.01335e-06	2.32844e-06
2	1	0	1	1	418.624	-0.541616	-0.541799	-0.00383646	2	-6.05316e-06	2.07859e-06
2	1	0	1	1	418.634	-0.53162	-0.531829	-0.0035127	2	-6.08941e-06	1.86816e-06
2	1	0	1	1	418.644	-0.521624	-0.521838	-0.00321774	2	-6.12258e-06	1.67914e-06
2	1	0	1	1	418.654	-0.511627	-0.511852	-0.00295909	2	-6.153e-06	1.51462e-06
2	1	0	1	1	418.664	-0.501631	-0.501836	-0.00272368	2	-6.18097e-06	1.36684e-06
2	1	0	1	1	418.674	-0.491635	-0.491827	-0.00251345	2	-6.2067e-06	1.23618e-06
2	1	0	1	1	418.684	-0.481639	-0.481849	-0.00232509	2	-6.23044e-06	1.12034e-06
2	1	0	1	1	418.694	-0.471643	-0.471849	-0.0021385	2	-6.25226e-06	1.00905e-06
2	1	0	1	1	418.704	-0.461647	-0.461831	-0.00196022	2	-6.27227e-06	9.05288e-07
2	1	0	0	1	418.745	-0.421395	-0.421572	-0.00133782	2	-6.34285e-06	5.63987e-07
2	1	0	0	1	418.755	-0.411399	-0.411557	-0.00119203	2	-6.35534e-06	4.9059e-07
2	1	0	0	1	418.765	-0.401403	-0.401621	-0.00106757	2	-6.36647e-06	4.28759e-07
2	1	0	0	1	418.775	-0.391407	-0.39159	-0.000924634	2	-6.37625e-06	3.62078e-07
2	1	0	0	1	418.785	-0.38141	-0.381612	-0.000788654	2	-6.38468e-06	3.0096e-07
2	1	0	0	1	418.795	-0.371414	-0.371583	-0.000660514	2	-6.39176e-06	2.45436e-07
2	1	0	0	1	418.805	-0.361418	-0.361583	-0.000533682	2	-6.39753e-06	1.9297e-07
2	1	0	0	1	418.815	-0.351422	-0.351611	-0.000399511	2	-6.40201e-06	1.40473e-07
2	1	0	0	1	418.825	-0.341426	-0.341593	-0.000262287	2	-6.40512e-06	8.95953e-08
2	1	0	0	1	418.835	-0.331429	-0.331595	-0.000120856	2	-6.40681e-06	4.00752e-08
2	1	0	0	1	418.845	-0.321433	-0.321588	2.23526e-05	2	-6.4071e-06	7.18831e-09
2	1	0	0	1	418.855	-0.311437	-0.311612	0.000176727	2	-6.40593e-06	5.50703e-08
2	1	0	0	1	418.865	-0.301441	-0.301601	0.000346881	2	-6.4031e-06	1.0462e-07
2	1	0	0	1	418.875	-0.291445	-0.291576	0.000538386	2	-6.39846e-06	1.56981e-07
2	1	0	0	1	418.885	-0.281448	-0.281553	0.000750856	2	-6.39184e-06	2.11406e-07
2	1	0	0	1	418.895	-0.271386	-0.271524	0.00101942	2	-6.38295e-06	2.76796e-07
2	1	0	0	1	418.905	-0.261389	-0.261513	0.00129086	2	-6.37129e-06	3.37577e-07
2	1	0	0	1	418.915	-0.251393	-0.251541	0.00162782	2	-6.35659e-06	4.09463e-07
2	1	0	0	1	418.925	-0.241397	-0.241545	0.00204806	2	-6.33806e-06	4.947e-07
2	1	0	0	1	418.935	-0.231401	-0.23157	0.00253175	2	-6.31504e-06	5.86277e-07
2	1	0	0	1	418.945	-0.221405	-0.221557	0.00312881	2	-6.28661e-06	6.93211e-07
2	1	0	0	1	418.955	-0.211409	-0.211541	0.00380216	2	-6.25184e-06	8.04312e-07
2	1	0	0	1	418.965	-0.201412	-0.201533	0.00454838	2	-6.2099e-06	9.1665e-07
2	1	0	0	1	418.975	-0.191416	-0.191542	0.00536887	2	-6.16018e-06	1.02836e-06
2	1	0	0	1	418.985	-0.18142	-0.181561	0.00622068	2	-6.10202e-06	1.12943e-06
2	1	0	0	1	418.995	-0.171424	-0.171565	0.0070778	2	-6.03518e-06	1.2143e-06
2	1	0	0	1	419.005	-0.161428	-0.161549	0.0078991	2	-5.95991e-06	1.27609e-06
2	1	0	0	1	419.015	-0.151431	-0.151539	0.00865705	2	-5.87669e-06	1.31188e-06
2	1	0	0	1	419.025	-0.141435	-0.141549	0.00923324	2	-5.78678e-06	1.30695e-06
2	1	0	0	1	419.035	-0.131439	-0.131554	0.00964023	2	-5.69196e-06	1.26821e-06
2	1	0	1	1	419.074	-0.0915875	-0.0917328	0.00917575	2	-5.30904e-06	8.41717e-07
2	1	0	1	1	419.084	-0.0815914	-0.0817458	0.00870381	2	-5.21927e-06	7.115e-07
2	1	0	1	1	419.094	-0.0715952	-0.0717499	0.00824179	2	-5.13413e-06	5.91348e-07
2	1	0	1	1	419.104	-0.061599	-0.0617758	0.00779321	2	-5.05363e-06	4.81432e-07
2	1	0	1	1	419.114	-0.0516028	-0.0517827	0.00738982	2	-4.97732e-06	3.82665e-07
2	1	0	1	1	419.124	-0.0416066	-0.0417789	0.00705457	2	-4.90479e-06	2.94733e-07
2	1	0	1	1	419.134	-0.0316104	-0.0317732	0.00675654	2	-4.83546e-06	2.14677e-07
2	1	0	1	1	419.144	-0.0216142	-0.0217428	0.00649511	2	-4.76886e-06	1.41222e-07
2	1	0	1	1	419.154	-0.011618	-0.0117652	0.00627472	2	-4.70476e-06	7.38237e-08
2	1	0	1	1	419.164	-0.00162183	-0.00178883	0.00607542	2	-4.6426e-06	1.08679e-08
2	1	0	1	1	419.174	0.00837436	0.00823909	0.00591876	2	-4.58217e-06	4.87652e-08
2	1	0	1	1	419.184	0.0183705	0.0182628	0.00576498	2	-4.52335e-06	1.05285e-07
2	1	0	1	1	419.194	0.0283667	0.0282566	0.00564098	2	-4.46591e-06	1.59395e-07
2	1	0	1	1	419.204	0.0383629	0.0382323	0.00552895	2	-4.4096e-06	2.11384e-07
2	1	0	1	1	419.214	0.0483591	0.0482738	0.00544079	2	-4.35427e-06	2.62648e-07
2	1	0	1	1	419.224	0.0583553	0.0582822	0.00535678	2	-4.29984e-06	3.12205e-07
2	1	0	1	1	419.234	0.0683515	0.0682289	0.00528973	2	-4.24617e-06	3.60913e-07
2	1	0	1	1	419.244	0.0784143	0.0783126	0.00524943	2	-4.19307e-06	4.11096e-07
2	1	0	1	1	419.254	0.0884105	0.0882793	0.00517773	2	-4.14061e-06	4.57086e-07
2	1	0	1	1	419.264	0.0982016	0.098085	0.00513937	2	-4.08969e-06	5.04095e-07
2	0	0	1	1	419.268	0.09834	0.0982293	0.00363357	2	-4.07163e-06	3.56923e-07
2	0	0	1	1	419.278	0.0883438	0.0882069	0.00198159	2	-4.04665e-06	1.7479e-07
2	0	0	1	1	419.288	0.0783476	0.0782486	0.00145669	2	-4.03011e-06	1.13984e-07
2	0	0	0	1	419.298	0.0684847	0.0683718	0.00107782	2	-4.0183e-06	7.36926e-08
2	0	0	0	1	419.308	0.0584886	0.0584065	0.000776999	2	-4.00951e-06	4.53818e-08
2	0	0	0	1	419.318	0.0484924	0.0484006	0.000515359	2	-4.00355e-06	2.49437e-08
2	0	0	0	1	419.328	0.0384962	0.038375	0.000283392	2	-4.00007e-06	1.08752e-08
2	0	0	0	1	419.338	0.0285	0.0283661	6.92105e-05	2	-3.99879e-06	1.96323e-09
2	0	0	0	1	419.348	0.0185038	0.0183741	-0.000125265	2	-3.9995e-06	2.30163e-09
2	0	0	0	1	419.358	0.00850764	0.0083622	-0.00030999	2	-4.00211e-06	2.5922e-09
2	0	0	0	1	419.383	-0.0165131	-0.016722	-0.000785051	2	-4.01495e-06	1.31277e-08
2	0	0	0	1	419.408	-0.0414733	-0.0416937	-0.0011784	2	-4.03371e-06	4.91318e-08
[...]
2	0	0	0	1	419.468	-0.101517	-0.101708	-0.00235587	2	-4.13727e-06	2.39611e-07
2	0	0	0	1	419.478	-0.111513	-0.111666	-0.00263657	2	-4.16234e-06	2.94415e-07
2	0	0	0	1	419.488	-0.121509	-0.121673	-0.0029908	2	-4.19064e-06	3.63901e-07
2	0	0	0	1	419.498	-0.131506	-0.131714	-0.00342049	2	-4.22287e-06	4.50527e-07
2	0	0	0	1	419.508	-0.141502	-0.141702	-0.00391718	2	-4.25968e-06	5.55071e-07
2	0	0	0	1	419.518	-0.151498	-0.151702	-0.00451064	2	-4.30193e-06	6.84273e-07
2	0	0	0	1	419.528	-0.161494	-0.161707	-0.00517043	2	-4.35049e-06	8.36094e-07
2	0	0	0	1	419.538	-0.17149	-0.171704	-0.00590828	2	-4.40606e-06	1.01447e-06
2	0	0	0	1	419.548	-0.181487	-0.1817	-0.00671516	2	-4.46932e-06	1.22015e-06
2	0	0	0	1	419.558	-0.191483	-0.191699	-0.00752494	2	-4.54075e-06	1.44253e-06
2	0	0	0	1	419.568	-0.201479	-0.201688	-0.00838367	2	-4.62044e-06	1.69089e-06
2	0	0	0	1	419.578	-0.211475	-0.211688	-0.00920898	2	-4.70872e-06	1.94943e-06
2	0	0	0	1	419.588	-0.221471	-0.221699	-0.00998726	2	-4.80494e-06	2.21416e-06
2	0	0	0	1	419.628	-0.261456	-0.261609	-0.0118863	2	-5.22429e-06	3.10957e-06
2	0	0	0	1	419.638	-0.271452	-0.27161	-0.011966	2	-5.34412e-06	3.25007e-06
2	0	0	0	1	419.648	-0.281515	-0.281669	-0.0119333	2	-5.4642e-06	3.36126e-06
2	0	0	0	1	419.658	-0.291511	-0.291669	-0.011722	2	-5.58298e-06	3.41895e-06
2	0	0	0	1	419.668	-0.301507	-0.301689	-0.0114561	2	-5.6994e-06	3.45618e-06
2	0	0	0	1	419.678	-0.311504	-0.311709	-0.0111279	2	-5.81274e-06	3.46866e-06
2	0	0	0	1	419.688	-0.3215	-0.321689	-0.0107992	2	-5.92278e-06	3.47398e-06
2	0	0	0	1	419.698	-0.331496	-0.331683	-0.0104602	2	-6.02939e-06	3.46948e-06
2	0	0	0	1	419.708	-0.341492	-0.341702	-0.0101865	2	-6.1329e-06	3.48075e-06
2	0	0	0	1	419.718	-0.351488	-0.351699	-0.00988522	2	-6.23362e-06	3.47662e-06
2	0	0	0	1	419.728	-0.361485	-0.361683	-0.00967175	2	-6.33188e-06	3.49811e-06
2	0	0	0	1	419.738	-0.371481	-0.371684	-0.00949343	2	-6.42798e-06	3.52856e-06
2	0	0	0	1	419.748	-0.381477	-0.381685	-0.0093349	2	-6.52239e-06	3.56299e-06
2	0	0	0	1	419.758	-0.391473	-0.391691	-0.00920056	2	-6.61555e-06	3.60378e-06
2	0	0	0	1	419.768	-0.401469	-0.401693	-0.00909787	2	-6.70749e-06	3.65455e-06
2	0	0	0	1	419.778	-0.411466	-0.411659	-0.00902146	2	-6.79854e-06	3.71377e-06
2	0	0	0	1	419.788	-0.421462	-0.421684	-0.00897174	2	-6.88899e-06	3.78324e-06
2	0	0	0	1	419.798	-0.431458	-0.431665	-0.00894014	2	-6.97891e-06	3.85915e-06
2	0	0	0	1	419.808	-0.441454	-0.441651	-0.00889465	2	-7.06852e-06	3.92833e-06
2	0	0	1	1	419.818	-0.451317	-0.451505	-0.00890539	2	-7.15617e-06	4.02083e-06
2	0	0	1	1	419.828	-0.461313	-0.46151	-0.00890785	2	-7.24554e-06	4.11106e-06
2	0	0	1	1	419.838	-0.471309	-0.471532	-0.00893275	2	-7.33508e-06	4.21208e-06
2	0	0	1	1	419.848	-0.481306	-0.48151	-0.00893219	2	-7.42482e-06	4.30094e-06
2	0	0	1	1	419.858	-0.491302	-0.491492	-0.0089737	2	-7.51479e-06	4.4105e-06
2	0	0	1	1	419.868	-0.501298	-0.50152	-0.00903919	2	-7.6052e-06	4.53333e-06
2	0	0	1	1	419.878	-0.511294	-0.51152	-0.00908212	2	-7.69626e-06	4.64569e-06
2	0	0	1	1	419.888	-0.52129	-0.52149	-0.0091657	2	-7.78789e-06	4.77982e-06
2	0	0	1	1	419.898	-0.531287	-0.531486	-0.00926866	2	-7.88048e-06	4.92616e-06
2	0	0	1	1	419.908	-0.541283	-0.541471	-0.00935336	2	-7.97398e-06	5.06458e-06
2	0	0	1	1	419.918	-0.551279	-0.551472	-0.00950186	2	-8.06866e-06	5.24001e-06
2	0	0	1	1	419.928	-0.561275	-0.561482	-0.00964897	2	-8.16484e-06	5.41772e-06
2	0	0	1	1	419.938	-0.571271	-0.571486	-0.00982303	2	-8.26263e-06	5.61372e-06
2	0	0	1	1	419.948	-0.581268	-0.581458	-0.0100231	2	-8.36225e-06	5.82802e-06
2	0	0	1	1	419.958	-0.591264	-0.591459	-0.0102606	2	-8.46409e-06	6.06875e-06
2	0	0	1	1	419.966	-0.599827	-0.600005	-0.0104899	2	-8.5524e-06	6.29397e-06