Folder: CV/TAP_Report/Data/MB_Suscept (part 2)

File: 6_bw_anti_3_C01_2.mpt
EC-Lab ASCII FILE
Nb header lines : 56

Cyclic Voltammetry

Run on channel : 1 (SN 0696)
User :
Electrode connection : standard
Ewe ctrl range : min = -2.50 V, max = 2.50 V
Ewe,I filtering : 50 kHz
Safety Limits :
	Do not start on E overload
Channel : Floating
Acquisition started on : 09/12/2016 16:09:37
Saved on :
	File : 6_bw_anti_3_C01.mpr
	Directory : \\userfs\st659\w2k\EC-Lab\Data\Meth_Blue 12-09-16\
	Host : 144.32.136.43
Device : SP-300 (SN 0182)
Address : USB
EC-Lab for windows v10.44 (software)
Internet server v10.44 (firmware)
Command interpretor v10.44 (firmware)
Electrode material :
Initial state :
Electrolyte :
Comments :
Cable : standard
Reference electrode : SCE Saturated Calomel Electrode (0.241 V)
Electrode surface area : 0.001 cm²
Characteristic mass : 0.001 g
Equivalent Weight : 0.000 g/eq.
Density : 0.000 g/cm3
Ei (V)              0.000
vs.                 Eoc
dE/dt               100.000
dE/dt unit          mV/s
E1 (V)              0.100
vs.                 Ref
Step percent        50
N                   10
E range min (V)     -2.500
E range max (V)     2.500
I Range             Auto
I Range min         Unset
I Range max         Unset
I Range init        Unset
Bandwidth           8
E2 (V)              -0.400
vs.                 Ref
nc cycles           2
Reverse Scan        1
Ef (V)              0.000
vs.                 Eoc

mode	ox/red	error	control changes	counter inc.	time/s	control/V	Ewe/V	<I>/mA	cycle number	(Q-Qo)/C	P/W
2	1	0	1	1	9.9638	0.0180046	0.0185602	0.00498081	2	-5.03156e-05	9.24445e-08
2	1	0	0	1	10.0393	0.0255515	0.0260572	0.0049207	2	-4.99447e-05	1.2822e-07
2	1	0	0	1	10.1193	0.0335482	0.0340545	0.00494443	2	-4.95492e-05	1.6838e-07
2	1	0	0	1	10.1993	0.0415449	0.0420404	0.00498788	2	-4.91505e-05	2.09693e-07
2	1	0	0	1	10.2793	0.0495415	0.0500237	0.00503524	2	-4.87485e-05	2.51881e-07
2	1	0	0	1	10.3593	0.0575382	0.0580168	0.00509159	2	-4.83427e-05	2.95398e-07
2	1	0	0	1	10.4393	0.0655349	0.0660429	0.00516007	2	-4.79323e-05	3.40786e-07
2	1	0	1	1	10.5191	0.0735316	0.0740339	0.00521792	2	-4.75176e-05	3.86303e-07
2	1	0	1	1	10.5991	0.0815283	0.0820134	0.00530593	2	-4.70967e-05	4.35157e-07
2	1	0	1	1	10.6791	0.089525	0.0900122	0.00537413	2	-4.66695e-05	4.83737e-07
2	1	0	1	1	10.7591	0.0975217	0.0980191	0.00546363	2	-4.62353e-05	5.3554e-07
2	0	0	1	1	10.8295	0.0954226	0.0958445	0.00154935	2	-4.59997e-05	1.48496e-07
2	0	0	1	1	10.9095	0.0874259	0.0878321	0.000573537	2	-4.5921e-05	5.0375e-08
2	0	0	1	1	10.9895	0.0794292	0.0798272	1.16323e-05	2	-4.58993e-05	9.28572e-10
2	0	0	1	1	11.0695	0.0714325	0.0718332	-0.000367576	2	-4.59142e-05	2.64042e-08
2	0	0	0	1	11.1493	0.0634358	0.0638444	-0.000672017	2	-4.59565e-05	4.29046e-08
2	0	0	0	1	11.2293	0.0554391	0.055834	-0.000894013	2	-4.602e-05	4.99163e-08
2	0	0	0	1	11.3093	0.0474424	0.0478316	-0.00110033	2	-4.61009e-05	5.26307e-08
2	0	0	0	1	11.3893	0.0394457	0.039844	-0.00127345	2	-4.61964e-05	5.07395e-08
2	0	0	0	1	11.4693	0.031449	0.0318486	-0.00141591	2	-4.63049e-05	4.50948e-08
2	0	0	0	1	11.5493	0.0234524	0.0238475	-0.00155194	2	-4.64244e-05	3.70098e-08
2	0	0	1	1	11.6291	0.0154557	0.0158671	-0.00167373	2	-4.65546e-05	2.65572e-08
2	0	0	1	1	11.7091	0.00745897	0.00784922	-0.0017995	2	-4.66943e-05	1.41247e-08
2	0	0	1	1	11.7891	-0.000537714	-0.000169712	-0.00190167	2	-4.68429e-05	3.22736e-10
2	0	0	1	1	11.8691	-0.00853441	-0.0081452	-0.00199907	2	-4.69998e-05	1.62829e-08
2	0	0	1	1	11.9491	-0.0165311	-0.0161552	-0.00210268	2	-4.7165e-05	3.39693e-08
2	0	0	1	1	12.0291	-0.0245278	-0.0241453	-0.00219653	2	-4.73379e-05	5.3036e-08
2	0	0	0	1	12.1089	-0.0325245	-0.0321302	-0.00229275	2	-4.75184e-05	7.36664e-08
2	0	0	0	1	12.1889	-0.0405212	-0.0401423	-0.00239723	2	-4.77072e-05	9.62304e-08
2	0	0	0	1	12.2689	-0.0485179	-0.0481373	-0.00248378	2	-4.79036e-05	1.19562e-07
2	0	0	0	1	12.3489	-0.0565146	-0.0561327	-0.00257591	2	-4.81077e-05	1.44593e-07
2	0	0	0	1	12.4289	-0.0645113	-0.0641254	-0.00267738	2	-4.83196e-05	1.71688e-07
2	0	0	0	1	12.5089	-0.0725079	-0.0721225	-0.00278766	2	-4.85393e-05	2.01053e-07
2	0	0	1	1	12.5887	-0.0805046	-0.0801202	-0.0028915	2	-4.87669e-05	2.31667e-07
2	0	0	1	1	12.6687	-0.0885013	-0.088115	-0.00301941	2	-4.90033e-05	2.66055e-07
2	0	0	1	1	12.7487	-0.096498	-0.0961231	-0.00309907	2	-4.92488e-05	2.97893e-07
2	0	0	1	1	12.8287	-0.104495	-0.104119	-0.00324291	2	-4.9504e-05	3.37649e-07
2	0	0	1	1	12.9087	-0.112491	-0.11211	-0.00337621	2	-4.97697e-05	3.78507e-07
2	0	0	1	1	12.9887	-0.120488	-0.120125	-0.00354799	2	-5.00481e-05	4.26203e-07
2	0	0	0	1	13.0685	-0.128485	-0.128109	-0.00376033	2	-5.03403e-05	4.81732e-07
2	0	0	0	1	13.1485	-0.136481	-0.136098	-0.00403127	2	-5.06515e-05	5.48649e-07
2	0	0	0	1	13.2285	-0.144478	-0.144103	-0.00434646	2	-5.09862e-05	6.26337e-07
2	0	0	0	1	13.3085	-0.152475	-0.152107	-0.00478557	2	-5.13516e-05	7.27916e-07
2	0	0	0	1	13.3885	-0.160472	-0.16009	-0.00538188	2	-5.17582e-05	8.61587e-07
2	0	0	0	1	13.4685	-0.168468	-0.168109	-0.00617283	2	-5.22197e-05	1.03771e-06
2	0	0	1	1	13.5483	-0.176465	-0.176114	-0.00716072	2	-5.27513e-05	1.2611e-06
2	0	0	1	1	13.6283	-0.184462	-0.184096	-0.00835419	2	-5.3372e-05	1.53797e-06
2	0	0	1	1	13.7083	-0.192458	-0.192108	-0.00971365	2	-5.40956e-05	1.86607e-06
2	0	0	0	1	13.8193	-0.203554	-0.203186	-0.0113975	2	-5.52745e-05	2.31582e-06
2	0	0	0	1	13.8993	-0.21155	-0.211181	-0.0126366	2	-5.62566e-05	2.66862e-06
2	0	0	0	1	13.9793	-0.219547	-0.219173	-0.0137377	2	-5.73333e-05	3.01094e-06
2	0	0	1	1	14.0591	-0.227544	-0.227185	-0.014614	2	-5.84846e-05	3.32009e-06
2	0	0	1	1	14.1391	-0.23554	-0.235168	-0.0152053	2	-5.96975e-05	3.57579e-06
2	0	0	1	1	14.2191	-0.243537	-0.243151	-0.0156338	2	-6.09527e-05	3.80137e-06
2	0	0	1	1	14.2991	-0.251534	-0.251143	-0.015954	2	-6.22367e-05	4.00674e-06
2	0	0	1	1	14.3791	-0.259531	-0.25916	-0.0161224	2	-6.35398e-05	4.17828e-06
2	0	0	1	1	14.4591	-0.267527	-0.267153	-0.0162889	2	-6.48555e-05	4.35163e-06
2	0	0	0	1	14.5389	-0.275524	-0.275162	-0.0163629	2	-6.61783e-05	4.50244e-06
2	0	0	0	1	14.6189	-0.283521	-0.283154	-0.016512	2	-6.7513e-05	4.67545e-06
2	0	0	0	1	14.6989	-0.291517	-0.291149	-0.0166406	2	-6.88575e-05	4.8449e-06
2	0	0	0	1	14.7789	-0.299514	-0.299139	-0.0168107	2	-7.02152e-05	5.02872e-06
2	0	0	0	1	14.8589	-0.307511	-0.307153	-0.0170739	2	-7.15895e-05	5.24428e-06
2	0	0	0	1	14.9389	-0.315507	-0.315161	-0.0173466	2	-7.29846e-05	5.46697e-06
2	0	0	1	1	15.0187	-0.323504	-0.323154	-0.017713	2	-7.44025e-05	5.72401e-06
2	0	0	1	1	15.0987	-0.331501	-0.331149	-0.0181075	2	-7.58546e-05	5.99627e-06
2	0	0	1	1	15.1787	-0.339498	-0.339125	-0.0186034	2	-7.73427e-05	6.30887e-06
2	0	0	1	1	15.2587	-0.347494	-0.347119	-0.0191711	2	-7.88729e-05	6.65464e-06
2	0	0	1	1	15.3387	-0.355491	-0.355129	-0.0197512	2	-8.04502e-05	7.01421e-06
2	0	0	1	1	15.4187	-0.363488	-0.363129	-0.0204782	2	-8.20803e-05	7.43623e-06
2	0	0	0	1	15.4985	-0.371484	-0.371121	-0.0212605	2	-8.37646e-05	7.89021e-06
2	0	0	0	1	15.5785	-0.379481	-0.379121	-0.0220951	2	-8.55165e-05	8.37672e-06
2	0	0	0	1	15.6585	-0.387478	-0.38711	-0.0229807	2	-8.73371e-05	8.89606e-06
2	0	0	0	1	15.7385	-0.395474	-0.395115	-0.0239264	2	-8.92312e-05	9.45369e-06
2	1	0	1	0	15.7999	-0.398373	-0.397955	-0.0211077	2	-9.06839e-05	8.3999e-06
2	1	0	1	0	15.8799	-0.390376	-0.389946	-0.0183208	2	-9.22272e-05	7.14413e-06
2	1	0	1	0	15.9599	-0.38238	-0.38197	-0.0164768	2	-9.35955e-05	6.29365e-06
[...]
2	1	0	0	0	16.1997	-0.35839	-0.357964	-0.0122483	2	-9.69481e-05	4.38444e-06
2	1	0	0	0	16.2797	-0.350393	-0.349971	-0.011099	2	-9.78623e-05	3.88432e-06
2	1	0	0	0	16.3597	-0.342396	-0.341969	-0.0100732	2	-9.86896e-05	3.44471e-06
2	1	0	0	0	16.4397	-0.3344	-0.333973	-0.00907461	2	-9.94369e-05	3.03067e-06
2	1	0	0	0	16.5197	-0.326403	-0.325979	-0.00823909	2	-0.00010011	2.68577e-06
2	1	0	1	0	16.5995	-0.318406	-0.317969	-0.007403	2	-0.000100713	2.35393e-06
2	1	0	1	0	16.6795	-0.31041	-0.309994	-0.0066257	2	-0.000101253	2.05393e-06
2	1	0	1	0	16.7595	-0.302413	-0.302001	-0.00588658	2	-0.000101732	1.77775e-06
2	1	0	1	0	16.8395	-0.294416	-0.293987	-0.0051445	2	-0.000102154	1.51242e-06
2	1	0	0	0	16.9505	-0.283321	-0.282897	-0.00399742	2	-0.000102658	1.13086e-06
2	1	0	0	0	17.0305	-0.275324	-0.274902	-0.00332595	2	-0.000102951	9.14311e-07
2	1	0	1	0	17.1103	-0.267327	-0.266908	-0.00261245	2	-0.000103187	6.97284e-07
2	1	0	1	0	17.1903	-0.259331	-0.258884	-0.00188392	2	-0.000103365	4.87718e-07
2	1	0	1	0	17.2703	-0.251334	-0.250908	-0.00105307	2	-0.000103482	2.64223e-07
2	1	0	1	0	17.3503	-0.243337	-0.242904	-0.000142073	2	-0.000103529	3.45102e-08
2	1	0	1	0	17.4303	-0.235341	-0.234908	0.000909091	2	-0.000103498	2.13553e-07
2	1	0	1	0	17.5103	-0.227344	-0.226918	0.0020642	2	-0.000103379	4.68404e-07
2	1	0	0	0	17.5901	-0.219347	-0.218914	0.00337904	2	-0.000103161	7.39718e-07
2	1	0	0	0	17.6701	-0.21135	-0.210907	0.00472219	2	-0.000102836	9.95942e-07
2	1	0	0	0	17.7501	-0.203354	-0.202901	0.00602501	2	-0.000102404	1.22248e-06
2	1	0	0	0	17.8301	-0.195357	-0.194889	0.00712572	2	-0.000101875	1.38873e-06
2	1	0	0	0	17.9101	-0.18736	-0.18688	0.00794521	2	-0.000101269	1.4848e-06
2	1	0	0	0	17.9901	-0.179364	-0.178883	0.00838852	2	-0.000100613	1.50056e-06
2	1	0	1	0	18.0699	-0.171367	-0.170871	0.00849082	2	-9.99366e-05	1.45083e-06
2	1	0	1	0	18.1499	-0.16337	-0.162868	0.00830669	2	-9.92627e-05	1.35289e-06
2	1	0	1	0	18.2299	-0.155374	-0.154865	0.00796245	2	-9.86108e-05	1.23311e-06
2	1	0	1	0	18.3099	-0.147377	-0.146873	0.0075211	2	-9.79904e-05	1.10465e-06
2	1	0	1	0	18.3899	-0.13938	-0.138853	0.00709952	2	-9.74052e-05	9.85791e-07
2	1	0	1	0	18.4699	-0.131384	-0.130872	0.00668354	2	-9.68537e-05	8.74686e-07
2	1	0	0	0	18.5497	-0.123387	-0.122881	0.00633446	2	-9.63339e-05	7.78386e-07
2	1	0	0	0	18.6297	-0.11539	-0.11489	0.00603192	2	-9.58393e-05	6.93007e-07
2	1	0	0	0	18.7097	-0.107394	-0.106886	0.00576889	2	-9.5367e-05	6.16614e-07
2	1	0	0	0	18.7897	-0.0993968	-0.0988861	0.00555505	2	-9.49131e-05	5.49317e-07
2	1	0	0	0	18.8697	-0.0914001	-0.0908782	0.00540361	2	-9.44743e-05	4.9107e-07
2	1	0	0	0	18.9497	-0.0834034	-0.0829078	0.00526368	2	-9.40474e-05	4.364e-07
2	1	0	1	0	19.0295	-0.0754067	-0.0749101	0.00515032	2	-9.3631e-05	3.85811e-07
2	1	0	1	0	19.1095	-0.0674101	-0.0669155	0.00506763	2	-9.32213e-05	3.39103e-07
2	1	0	1	0	19.1895	-0.0594134	-0.0589027	0.00502509	2	-9.28171e-05	2.95991e-07
2	1	0	1	0	19.2695	-0.0514167	-0.0509113	0.0049568	2	-9.24173e-05	2.52357e-07
2	1	0	1	0	19.3495	-0.04342	-0.0429191	0.00493711	2	-9.20204e-05	2.11896e-07
2	1	0	1	0	19.4295	-0.0354233	-0.0349273	0.0049202	2	-9.16253e-05	1.71849e-07
2	1	0	0	0	19.5093	-0.0274266	-0.0269295	0.00491189	2	-9.12319e-05	1.32275e-07
2	1	0	0	0	19.5893	-0.0194299	-0.0189377	0.00491155	2	-9.0838e-05	9.30135e-08
2	1	0	0	0	19.6693	-0.0114332	-0.0109304	0.00493514	2	-9.04436e-05	5.39433e-08
2	1	0	0	0	19.7493	-0.00343652	-0.00296323	0.00493367	2	-9.00482e-05	1.46196e-08
2	1	0	0	0	19.8293	0.00456017	0.00505825	0.00497402	2	-8.96507e-05	2.51599e-08
2	1	0	0	0	19.9093	0.0125569	0.0130587	0.00498961	2	-8.92514e-05	6.5158e-08
2	1	0	0	0	19.9587	0.017501	0.0180193	0.00505483	2	-8.90034e-05	9.10847e-08

File: 6_bw_noanti_1_C01_2.mpt
EC-Lab ASCII FILE
Nb header lines : 56

Cyclic Voltammetry

Run on channel : 1 (SN 0696)
User :
Electrode connection : standard
Ewe ctrl range : min = -2.50 V, max = 2.50 V
Ewe,I filtering : 50 kHz
Safety Limits :
	Do not start on E overload
Channel : Floating
Acquisition started on : 09/12/2016 16:12:39
Saved on :
	File : 6_bw_noanti_1_C01.mpr
	Directory : \\userfs\st659\w2k\EC-Lab\Data\Meth_Blue 12-09-16\
	Host : 144.32.136.43
Device : SP-300 (SN 0182)
Address : USB
EC-Lab for windows v10.44 (software)
Internet server v10.44 (firmware)
Command interpretor v10.44 (firmware)
Electrode material :
Initial state :
Electrolyte :
Comments :
Cable : standard
Reference electrode : SCE Saturated Calomel Electrode (0.241 V)
Electrode surface area : 0.001 cm²
Characteristic mass : 0.001 g
Equivalent Weight : 0.000 g/eq.
Density : 0.000 g/cm3
Ei (V)              0.000
vs.                 Eoc
dE/dt               100.000
dE/dt unit          mV/s
E1 (V)              0.100
vs.                 Ref
Step percent        50
N                   10
E range min (V)     -2.500
E range max (V)     2.500
I Range             Auto
I Range min         Unset
I Range max         Unset
I Range init        Unset
Bandwidth           8
E2 (V)              -0.400
vs.                 Ref
nc cycles           2
Reverse Scan        1
Ef (V)              0.000
vs.                 Eoc

mode	ox/red	error	control changes	counter inc.	time/s	control/V	Ewe/V	<I>/mA	cycle number	(Q-Qo)/C	P/W
2	1	0	1	1	9.965	0.0131975	0.0136844	0.00470472	2	-3.67524e-05	6.4381e-08
2	1	0	0	1	10.0405	0.0207444	0.0212384	0.00462331	2	-3.63826e-05	9.81919e-08
2	1	0	0	1	10.1205	0.0287411	0.029212	0.00464396	2	-3.59903e-05	1.35659e-07
2	1	0	0	1	10.2005	0.0367378	0.0372218	0.00468519	2	-3.55964e-05	1.74391e-07
2	1	0	0	1	10.2805	0.0447345	0.0452255	0.004672	2	-3.52005e-05	2.11294e-07
2	1	0	0	1	10.3605	0.0527313	0.0532173	0.00472139	2	-3.48024e-05	2.5126e-07
2	1	0	0	1	10.4405	0.060728	0.0612134	0.00476847	2	-3.44011e-05	2.91894e-07
2	1	0	1	1	10.5203	0.0687247	0.0692109	0.00484607	2	-3.39968e-05	3.35401e-07
2	1	0	1	1	10.6003	0.0767214	0.0772069	0.00489143	2	-3.35877e-05	3.77653e-07
2	1	0	1	1	10.6803	0.0847181	0.0851888	0.004944	2	-3.31742e-05	4.21173e-07
2	1	0	1	1	10.7603	0.0927149	0.0932126	0.0050246	2	-3.27549e-05	4.68356e-07
2	0	0	0	1	10.8332	0.0999619	0.100424	0.00479778	2	-3.23678e-05	4.81812e-07
2	0	0	0	1	10.9397	0.0893163	0.0897177	0.000691479	2	-3.21967e-05	6.20379e-08
2	0	0	0	1	11.0197	0.0813195	0.0817199	9.73344e-05	2	-3.21674e-05	7.95416e-09
2	0	0	0	1	11.0997	0.0733228	0.0737381	-0.00026313	2	-3.21755e-05	1.94027e-08
2	0	0	0	1	11.1797	0.0653261	0.0657232	-0.000584917	2	-3.22103e-05	3.84426e-08
2	0	0	1	1	11.2595	0.0573294	0.0577273	-0.000787159	2	-3.22659e-05	4.54406e-08
2	0	0	1	1	11.3395	0.0493327	0.0497574	-0.000995862	2	-3.2338e-05	4.95515e-08
2	0	0	1	1	11.4195	0.0413359	0.0417505	-0.00114871	2	-3.24241e-05	4.79593e-08
2	0	0	1	1	11.4995	0.0333392	0.0337337	-0.00129624	2	-3.25224e-05	4.37271e-08
2	0	0	1	1	11.5795	0.0253425	0.0257491	-0.00139826	2	-3.26309e-05	3.6004e-08
2	0	0	1	1	11.6595	0.0173458	0.0177605	-0.00152571	2	-3.27491e-05	2.70973e-08
2	0	0	0	1	11.7393	0.00934906	0.00976041	-0.00164068	2	-3.28763e-05	1.60137e-08
2	0	0	0	1	11.8193	0.00135234	0.00175462	-0.00174439	2	-3.30116e-05	3.06074e-09
2	0	0	0	1	11.8993	-0.00664438	-0.00623125	-0.00181355	2	-3.31544e-05	1.13007e-08
2	0	0	0	1	11.9793	-0.0146411	-0.014254	-0.00192003	2	-3.33049e-05	2.73681e-08
2	0	0	0	1	12.0593	-0.0226378	-0.022253	-0.00200082	2	-3.34622e-05	4.45242e-08
2	0	0	0	1	12.1393	-0.0306345	-0.0302338	-0.00208163	2	-3.36262e-05	6.29356e-08
2	0	0	1	1	12.2191	-0.0386313	-0.038232	-0.00216755	2	-3.37971e-05	8.28695e-08
2	0	0	1	1	12.2991	-0.046628	-0.0462007	-0.0022589	2	-3.39749e-05	1.04363e-07
2	0	0	1	1	12.3791	-0.0546247	-0.0542224	-0.0023385	2	-3.41594e-05	1.26799e-07
2	0	0	1	1	12.4591	-0.0626214	-0.0622246	-0.00245251	2	-3.43508e-05	1.52606e-07
2	0	0	1	1	12.5391	-0.0706182	-0.0702219	-0.00250237	2	-3.45491e-05	1.75721e-07
2	0	0	1	1	12.6191	-0.0786149	-0.0782145	-0.0026013	2	-3.47546e-05	2.03459e-07
2	0	0	0	1	12.6989	-0.0866116	-0.0861991	-0.0027175	2	-3.49678e-05	2.34246e-07
2	0	0	0	1	12.7789	-0.0946083	-0.094231	-0.00281422	2	-3.51901e-05	2.65187e-07
2	0	0	0	1	12.8589	-0.102605	-0.102224	-0.0029471	2	-3.5422e-05	3.01265e-07
2	0	0	0	1	12.9389	-0.110602	-0.110208	-0.00312659	2	-3.56651e-05	3.44577e-07
2	0	0	0	1	13.0189	-0.118598	-0.118206	-0.00330904	2	-3.59225e-05	3.91149e-07
2	0	0	0	1	13.0989	-0.126595	-0.126211	-0.00356217	2	-3.61978e-05	4.49586e-07
2	0	0	1	1	13.1787	-0.134592	-0.134194	-0.00391732	2	-3.64967e-05	5.25683e-07
2	0	0	1	1	13.2587	-0.142589	-0.142204	-0.00438616	2	-3.68286e-05	6.23729e-07
2	0	0	1	1	13.3387	-0.150585	-0.150194	-0.00501685	2	-3.7204e-05	7.53501e-07
2	0	0	1	1	13.4187	-0.158582	-0.158199	-0.00582428	2	-3.7637e-05	9.21397e-07
2	0	0	1	1	13.4987	-0.166579	-0.166204	-0.00685006	2	-3.81437e-05	1.13851e-06
2	0	0	1	1	13.5787	-0.174576	-0.174196	-0.00804551	2	-3.87392e-05	1.4015e-06
2	0	0	1	1	13.6586	-0.182579	-0.182209	-0.00933522	2	-3.94325e-05	1.70096e-06
2	0	0	1	1	13.7695	-0.193668	-0.193277	-0.0106886	2	-4.0553e-05	2.06585e-06
2	0	0	1	1	13.8495	-0.201664	-0.201278	-0.0117079	2	-4.14706e-05	2.35654e-06
2	0	0	1	1	13.9295	-0.209661	-0.209281	-0.0124703	2	-4.24597e-05	2.6098e-06
2	0	0	1	1	14.0095	-0.217658	-0.217294	-0.0130282	2	-4.35018e-05	2.83096e-06
2	0	0	1	1	14.0895	-0.225655	-0.225266	-0.0133957	2	-4.45795e-05	3.01759e-06
2	0	0	0	1	14.1693	-0.233651	-0.233257	-0.0136015	2	-4.56765e-05	3.17263e-06
2	0	0	0	1	14.2493	-0.241648	-0.241264	-0.0136373	2	-4.67872e-05	3.29018e-06
2	0	0	0	1	14.3293	-0.249645	-0.249259	-0.0136429	2	-4.79011e-05	3.40062e-06
2	0	0	0	1	14.4093	-0.257641	-0.257252	-0.0136643	2	-4.90135e-05	3.51515e-06
2	0	0	0	1	14.4893	-0.265638	-0.265279	-0.013567	2	-5.01215e-05	3.59904e-06
2	0	0	0	1	14.5693	-0.273635	-0.273253	-0.0135067	2	-5.12244e-05	3.69076e-06
2	0	0	1	1	14.6491	-0.281632	-0.281251	-0.0134451	2	-5.23196e-05	3.78145e-06
2	0	0	1	1	14.7291	-0.289628	-0.289219	-0.0134025	2	-5.34134e-05	3.87626e-06
2	0	0	1	1	14.8091	-0.297625	-0.297215	-0.0133581	2	-5.45051e-05	3.97024e-06
2	0	0	1	1	14.8891	-0.305622	-0.305236	-0.0134028	2	-5.55966e-05	4.09104e-06
2	0	0	1	1	14.9691	-0.313619	-0.313237	-0.0134355	2	-5.66905e-05	4.20849e-06
2	0	0	1	1	15.0491	-0.321615	-0.321243	-0.0135133	2	-5.77898e-05	4.34106e-06
2	0	0	0	1	15.1289	-0.329612	-0.329238	-0.0136579	2	-5.8894e-05	4.49669e-06
2	0	0	0	1	15.2089	-0.337609	-0.337212	-0.0137759	2	-6.00113e-05	4.64541e-06
2	0	0	0	1	15.2889	-0.345605	-0.34523	-0.0139685	2	-6.1142e-05	4.82236e-06
2	0	0	0	1	15.3689	-0.353602	-0.353204	-0.0141839	2	-6.22888e-05	5.00982e-06
2	0	0	0	1	15.4489	-0.361599	-0.361196	-0.0144717	2	-6.34547e-05	5.22713e-06
2	0	0	0	1	15.5289	-0.369596	-0.369203	-0.0147343	2	-6.46422e-05	5.43994e-06
2	0	0	0	1	15.6088	-0.377597	-0.377203	-0.0150665	2	-6.5853e-05	5.68314e-06
2	0	0	1	1	15.6887	-0.385589	-0.385196	-0.0154427	2	-6.70914e-05	5.94845e-06
2	0	0	1	1	15.7687	-0.393586	-0.393196	-0.0158113	2	-6.83611e-05	6.21696e-06
2	1	0	1	0	15.8383	-0.399483	-0.399048	-0.0138035	2	-6.94779e-05	5.50826e-06
2	1	0	1	0	15.9183	-0.391487	-0.391038	-0.011095	2	-7.04242e-05	4.33856e-06
2	1	0	1	0	15.9983	-0.38349	-0.383051	-0.00980718	2	-7.12387e-05	3.75665e-06
[...]
2	1	0	0	0	16.3181	-0.351503	-0.351068	-0.00666151	2	-7.37477e-05	2.33865e-06
2	1	0	0	0	16.3981	-0.343506	-0.343075	-0.00597473	2	-7.42326e-05	2.04978e-06
2	1	0	0	0	16.4781	-0.33551	-0.335069	-0.0054654	2	-7.46704e-05	1.83129e-06
2	1	0	1	0	16.5734	-0.325964	-0.325498	-0.00472273	2	-7.51386e-05	1.53724e-06
2	1	0	0	0	16.6689	-0.316417	-0.315966	-0.00400237	2	-7.5555e-05	1.26461e-06
2	1	0	0	0	16.7489	-0.308421	-0.307982	-0.00355647	2	-7.58576e-05	1.09533e-06
2	1	0	0	0	16.8289	-0.300424	-0.299972	-0.00311349	2	-7.61242e-05	9.3396e-07
2	1	0	0	0	16.9089	-0.292427	-0.29198	-0.00268968	2	-7.6356e-05	7.85333e-07
2	1	0	0	0	16.9889	-0.284431	-0.283997	-0.00225885	2	-7.65541e-05	6.41507e-07
2	1	0	1	0	17.0687	-0.276434	-0.275987	-0.00184862	2	-7.67176e-05	5.10196e-07
2	1	0	1	0	17.1487	-0.268437	-0.267983	-0.00140875	2	-7.68475e-05	3.77521e-07
2	1	0	1	0	17.2287	-0.26044	-0.259981	-0.000937664	2	-7.69411e-05	2.43775e-07
2	1	0	1	0	17.3087	-0.252444	-0.251996	-0.000424752	2	-7.69956e-05	1.07036e-07
2	1	0	1	0	17.3887	-0.244447	-0.244005	0.000159904	2	-7.70063e-05	3.90174e-08
2	1	0	1	0	17.4687	-0.23645	-0.235985	0.000851836	2	-7.69659e-05	2.01021e-07
2	1	0	0	0	17.5485	-0.228453	-0.228008	0.00166887	2	-7.68654e-05	3.80516e-07
2	1	0	0	0	17.6285	-0.220457	-0.220006	0.00267832	2	-7.66922e-05	5.89246e-07
2	1	0	0	0	17.7085	-0.21246	-0.211989	0.00383805	2	-7.64321e-05	8.13626e-07
2	1	0	0	0	17.7885	-0.204463	-0.204002	0.00516443	2	-7.60721e-05	1.05355e-06
2	1	0	0	0	17.8685	-0.196467	-0.195987	0.00656643	2	-7.56021e-05	1.28693e-06
2	1	0	0	0	17.9485	-0.18847	-0.187971	0.00787336	2	-7.50227e-05	1.47997e-06
2	1	0	1	0	18.0283	-0.180473	-0.179951	0.00895264	2	-7.43482e-05	1.61104e-06
2	1	0	1	0	18.1083	-0.172476	-0.171964	0.00965362	2	-7.36011e-05	1.66008e-06
2	1	0	1	0	18.1883	-0.16448	-0.163953	0.00990663	2	-7.28165e-05	1.62423e-06
2	1	0	1	0	18.2683	-0.156483	-0.155972	0.00975065	2	-7.20278e-05	1.52083e-06
2	1	0	1	0	18.3483	-0.148486	-0.147976	0.00937015	2	-7.12612e-05	1.38656e-06
2	1	0	1	0	18.4283	-0.14049	-0.139975	0.00881739	2	-7.05329e-05	1.23421e-06
2	1	0	0	0	18.5081	-0.132493	-0.131974	0.00825222	2	-6.98509e-05	1.08908e-06
2	1	0	0	0	18.5881	-0.124496	-0.123995	0.00770147	2	-6.92126e-05	9.54948e-07
2	1	0	0	0	18.6681	-0.116499	-0.116	0.00721483	2	-6.86156e-05	8.36921e-07
2	1	0	0	0	18.7481	-0.108503	-0.107978	0.00681418	2	-6.80546e-05	7.35779e-07
2	1	0	0	0	18.8281	-0.100506	-0.0999904	0.00645324	2	-6.75243e-05	6.45261e-07
2	1	0	0	0	18.9081	-0.0925092	-0.0919886	0.00616525	2	-6.70196e-05	5.67133e-07
2	1	0	0	0	18.988	-0.0845056	-0.0839904	0.00595169	2	-6.65363e-05	4.99885e-07
2	1	0	1	0	19.0679	-0.0765157	-0.076005	0.00572927	2	-6.60705e-05	4.35453e-07
2	1	0	1	0	19.1479	-0.068519	-0.0680138	0.00557657	2	-6.56186e-05	3.79284e-07
2	1	0	1	0	19.2279	-0.0605223	-0.0600055	0.00545358	2	-6.51779e-05	3.27245e-07
2	1	0	1	0	19.3079	-0.0525256	-0.0520132	0.00534275	2	-6.47469e-05	2.77894e-07
2	1	0	1	0	19.3879	-0.0445289	-0.0440195	0.00523486	2	-6.43233e-05	2.30436e-07
2	1	0	1	0	19.4679	-0.0365321	-0.0360322	0.0051891	2	-6.39056e-05	1.86975e-07
2	1	0	0	0	19.5477	-0.0285354	-0.0280556	0.00513861	2	-6.34932e-05	1.44167e-07
2	1	0	0	0	19.6277	-0.0205387	-0.020032	0.00509811	2	-6.30835e-05	1.02125e-07
2	1	0	0	0	19.7077	-0.012542	-0.0120578	0.0050633	2	-6.26765e-05	6.10523e-08
2	1	0	0	0	19.7877	-0.00454524	-0.0040376	0.00506453	2	-6.22707e-05	2.04485e-08
2	1	0	0	0	19.8677	0.00345148	0.00394403	0.00506075	2	-6.18656e-05	1.99597e-08
2	1	0	0	0	19.9477	0.0114482	0.0119553	0.00504924	2	-6.14608e-05	6.03654e-08
2	1	0	1	0	19.9635	0.0130475	0.0135565	0.00509993	2	-6.13805e-05	6.91374e-08