Folder: CV/TAP_Report/Data/MB_Suscept (part 4)

File: 6_pk_anti_1_C01_2.mpt
EC-Lab ASCII FILE
Nb header lines : 56

Cyclic Voltammetry

Run on channel : 1 (SN 0696)
User :
Electrode connection : standard
Ewe ctrl range : min = -2.50 V, max = 2.50 V
Ewe,I filtering : 50 kHz
Safety Limits :
	Do not start on E overload
Channel : Floating
Acquisition started on : 09/12/2016 16:21:12
Saved on :
	File : 6_pk_anti_1_C01.mpr
	Directory : \\userfs\st659\w2k\EC-Lab\Data\Meth_Blue 12-09-16\
	Host : 144.32.136.43
Device : SP-300 (SN 0182)
Address : USB
EC-Lab for windows v10.44 (software)
Internet server v10.44 (firmware)
Command interpretor v10.44 (firmware)
Electrode material :
Initial state :
Electrolyte :
Comments :
Cable : standard
Reference electrode : SCE Saturated Calomel Electrode (0.241 V)
Electrode surface area : 0.001 cm²
Characteristic mass : 0.001 g
Equivalent Weight : 0.000 g/eq.
Density : 0.000 g/cm3
Ei (V)              0.000
vs.                 Eoc
dE/dt               100.000
dE/dt unit          mV/s
E1 (V)              0.100
vs.                 Ref
Step percent        50
N                   10
E range min (V)     -2.500
E range max (V)     2.500
I Range             Auto
I Range min         Unset
I Range max         Unset
I Range init        Unset
Bandwidth           8
E2 (V)              -0.400
vs.                 Ref
nc cycles           2
Reverse Scan        1
Ef (V)              0.000
vs.                 Eoc

mode	ox/red	error	control changes	counter inc.	time/s	control/V	Ewe/V	<I>/mA	cycle number	(Q-Qo)/C	P/W
2	1	0	1	1	9.9898	0.00290831	0.0033808	0.00483246	2	-3.20169e-05	1.63376e-08
2	1	0	0	1	10.0653	0.0104552	0.0109309	0.00477923	2	-3.16552e-05	5.2241e-08
2	1	0	0	1	10.1453	0.0184519	0.0189695	0.00477092	2	-3.12722e-05	9.0502e-08
2	1	0	0	1	10.2253	0.0264486	0.0269511	0.00477518	2	-3.08896e-05	1.28697e-07
2	1	0	0	1	10.3053	0.0344453	0.0349415	0.00479062	2	-3.0506e-05	1.67391e-07
2	1	0	0	1	10.3853	0.042442	0.0429267	0.00481757	2	-3.01209e-05	2.06802e-07
2	1	0	1	1	10.4651	0.0504387	0.0509208	0.0048392	2	-2.97344e-05	2.46416e-07
2	1	0	1	1	10.5451	0.0584354	0.0589054	0.0048741	2	-2.93445e-05	2.87111e-07
2	1	0	1	1	10.6251	0.0664321	0.0669314	0.00492919	2	-2.8951e-05	3.29917e-07
2	1	0	1	1	10.7051	0.0744288	0.0749193	0.00497581	2	-2.85537e-05	3.72784e-07
2	1	0	1	1	10.7851	0.0824255	0.0829041	0.00504888	2	-2.81517e-05	4.18573e-07
2	1	0	1	1	10.8651	0.0904222	0.0909231	0.00512804	2	-2.77443e-05	4.66257e-07
2	1	0	0	1	10.9449	0.0984189	0.098889	0.00520771	2	-2.73314e-05	5.14985e-07
2	0	0	1	1	11.0163	0.0944206	0.094808	0.00122423	2	-2.71451e-05	1.16066e-07
2	0	0	1	1	11.0963	0.0864239	0.0868016	0.000445462	2	-2.7083e-05	3.86668e-08
2	0	0	1	1	11.1763	0.0784272	0.0788191	-2.09156e-05	2	-2.7068e-05	1.64855e-09
2	0	0	1	1	11.2563	0.0704305	0.0708199	-0.000347385	2	-2.70838e-05	2.46017e-08
2	0	0	1	1	11.3363	0.0624337	0.06282	-0.000601822	2	-2.71228e-05	3.78065e-08
2	0	0	1	1	11.4163	0.054437	0.0548208	-0.000806225	2	-2.71799e-05	4.41979e-08
2	0	0	0	1	11.4961	0.0464403	0.0468229	-0.000985812	2	-2.72518e-05	4.61585e-08
2	0	0	0	1	11.5761	0.0384436	0.0388188	-0.00112411	2	-2.73365e-05	4.36366e-08
2	0	0	0	1	11.6561	0.0304469	0.0308274	-0.00124062	2	-2.7432e-05	3.8245e-08
2	0	0	0	1	11.7361	0.0224502	0.0228381	-0.00137386	2	-2.75374e-05	3.13764e-08
2	0	0	0	1	11.8161	0.0144535	0.0148381	-0.0014673	2	-2.76514e-05	2.17719e-08
2	0	0	0	1	11.8961	0.00645684	0.00683501	-0.00156181	2	-2.77737e-05	1.0675e-08
2	0	0	1	1	11.9759	-0.00153986	-0.00116633	-0.0016667	2	-2.79034e-05	1.94391e-09
2	0	0	1	1	12.0559	-0.00953657	-0.00916619	-0.00175645	2	-2.80405e-05	1.61e-08
2	0	0	1	1	12.1359	-0.0175333	-0.017161	-0.00183775	2	-2.81841e-05	3.15376e-08
2	0	0	1	1	12.2159	-0.02553	-0.0251517	-0.00190085	2	-2.8334e-05	4.78097e-08
2	0	0	1	1	12.2959	-0.0335267	-0.0331291	-0.00198535	2	-2.84903e-05	6.57729e-08
2	0	0	1	1	12.3759	-0.0415234	-0.0411608	-0.00207248	2	-2.86532e-05	8.53048e-08
2	0	0	0	1	12.4557	-0.0495201	-0.0491384	-0.00214868	2	-2.88218e-05	1.05582e-07
2	0	0	0	1	12.5357	-0.0575168	-0.0571406	-0.00222346	2	-2.8997e-05	1.2705e-07
2	0	0	0	1	12.6157	-0.0655135	-0.0651377	-0.00230262	2	-2.91787e-05	1.49987e-07
2	0	0	0	1	12.6957	-0.0735102	-0.0731259	-0.00238591	2	-2.93671e-05	1.74471e-07
2	0	0	0	1	12.7757	-0.0815069	-0.0811221	-0.002477	2	-2.95622e-05	2.0094e-07
2	0	0	0	1	12.8557	-0.0895036	-0.089123	-0.00259137	2	-2.97652e-05	2.3095e-07
2	0	0	1	1	12.9355	-0.0975003	-0.0971331	-0.00271986	2	-2.99763e-05	2.64188e-07
2	0	0	1	1	13.0155	-0.105497	-0.105122	-0.00283288	2	-3.01982e-05	2.97797e-07
2	0	0	1	1	13.0955	-0.113494	-0.113116	-0.0030003	2	-3.04318e-05	3.39381e-07
2	0	0	1	1	13.1755	-0.12149	-0.121142	-0.00320951	2	-3.06807e-05	3.88807e-07
2	0	0	1	1	13.2555	-0.129487	-0.12912	-0.00349676	2	-3.09493e-05	4.51501e-07
2	0	0	1	1	13.3355	-0.137484	-0.137123	-0.00389536	2	-3.12443e-05	5.34143e-07
2	0	0	1	1	13.4154	-0.145478	-0.145124	-0.00444979	2	-3.15754e-05	6.45773e-07
2	0	0	0	1	13.4953	-0.153477	-0.153121	-0.00512094	2	-3.1955e-05	7.84121e-07
2	0	0	0	1	13.5753	-0.161474	-0.1611	-0.00599288	2	-3.23982e-05	9.6545e-07
2	0	0	0	1	13.6553	-0.169471	-0.169126	-0.00708002	2	-3.29208e-05	1.19741e-06
2	0	0	0	1	13.7353	-0.177467	-0.177137	-0.00828067	2	-3.35355e-05	1.46681e-06
2	0	0	0	1	13.8153	-0.185464	-0.18512	-0.00951444	2	-3.42484e-05	1.76132e-06
2	0	0	0	1	13.9261	-0.196559	-0.196191	-0.0107933	2	-3.53865e-05	2.11754e-06
2	0	0	0	1	14.0061	-0.204556	-0.204189	-0.0116164	2	-3.63059e-05	2.37193e-06
2	0	0	0	1	14.0861	-0.212553	-0.212185	-0.0122695	2	-3.72854e-05	2.60341e-06
2	0	0	0	1	14.1661	-0.22055	-0.220193	-0.0127145	2	-3.83071e-05	2.79964e-06
2	0	0	0	1	14.2461	-0.228546	-0.228188	-0.0129629	2	-3.93549e-05	2.95798e-06
2	0	0	0	1	14.3261	-0.236543	-0.236187	-0.0130901	2	-4.04166e-05	3.09172e-06
2	0	0	1	1	14.4059	-0.24454	-0.244178	-0.0130888	2	-4.14805e-05	3.19601e-06
2	0	0	1	1	14.4859	-0.252536	-0.252173	-0.01302	2	-4.25456e-05	3.28328e-06
2	0	0	1	1	14.5659	-0.260533	-0.260176	-0.0129755	2	-4.36052e-05	3.37593e-06
2	0	0	1	1	14.6459	-0.26853	-0.268179	-0.0128514	2	-4.46573e-05	3.44647e-06
2	0	0	1	1	14.7259	-0.276527	-0.276172	-0.0127817	2	-4.57013e-05	3.52995e-06
2	0	0	1	1	14.8059	-0.284523	-0.284172	-0.0126765	2	-4.67376e-05	3.60231e-06
2	0	0	0	1	14.8857	-0.29252	-0.292153	-0.0125835	2	-4.7765e-05	3.67632e-06
2	0	0	0	1	14.9657	-0.300517	-0.30018	-0.0125804	2	-4.879e-05	3.77637e-06
2	0	0	0	1	15.0457	-0.308513	-0.308163	-0.0125269	2	-4.98119e-05	3.86032e-06
2	0	0	0	1	15.1257	-0.31651	-0.316155	-0.012513	2	-5.08328e-05	3.95606e-06
2	0	0	0	1	15.2057	-0.324507	-0.324163	-0.0125603	2	-5.18552e-05	4.07158e-06
2	0	0	0	1	15.2857	-0.332503	-0.33214	-0.0125941	2	-5.28808e-05	4.18301e-06
2	0	0	1	1	15.3655	-0.3405	-0.340138	-0.0126931	2	-5.39099e-05	4.31741e-06
2	0	0	1	1	15.4455	-0.348497	-0.348148	-0.0128277	2	-5.49504e-05	4.46593e-06
2	0	0	1	1	15.5255	-0.356494	-0.356138	-0.0129659	2	-5.60013e-05	4.61766e-06
2	0	0	1	1	15.6055	-0.36449	-0.364138	-0.0131687	2	-5.70653e-05	4.79524e-06
2	0	0	1	1	15.6855	-0.372487	-0.372139	-0.0133654	2	-5.8145e-05	4.97378e-06
2	0	0	1	1	15.7655	-0.380484	-0.380128	-0.0136047	2	-5.92427e-05	5.17151e-06
2	0	0	1	1	15.8454	-0.388487	-0.388124	-0.0139348	2	-6.03592e-05	5.40843e-06
2	0	0	0	1	15.9253	-0.396477	-0.396103	-0.0141576	2	-6.1499e-05	5.60786e-06
2	1	0	1	0	15.9959	-0.396477	-0.396072	-0.0104514	2	-6.23965e-05	4.1395e-06
2	1	0	1	0	16.0758	-0.388485	-0.388062	-0.00891394	2	-6.31432e-05	3.45916e-06
[...]
2	1	0	0	0	16.3157	-0.36449	-0.364084	-0.00643105	2	-6.48983e-05	2.34145e-06
2	1	0	0	0	16.3957	-0.356494	-0.35609	-0.00583607	2	-6.53686e-05	2.07816e-06
2	1	0	0	0	16.4757	-0.348497	-0.348079	-0.00528973	2	-6.57921e-05	1.84124e-06
2	1	0	0	0	16.5557	-0.3405	-0.34008	-0.00475295	2	-6.61729e-05	1.61638e-06
2	1	0	0	0	16.6665	-0.329405	-0.328983	-0.00389765	2	-6.66308e-05	1.28226e-06
2	1	0	0	0	16.7465	-0.321408	-0.320998	-0.00345078	2	-6.69247e-05	1.10769e-06
2	1	0	0	0	16.8265	-0.313411	-0.312991	-0.00305771	2	-6.71848e-05	9.57035e-07
2	1	0	0	0	16.9065	-0.305415	-0.305006	-0.00266287	2	-6.74131e-05	8.12191e-07
2	1	0	0	0	16.9865	-0.297418	-0.296995	-0.0022868	2	-6.76104e-05	6.79168e-07
2	1	0	1	0	17.0663	-0.289421	-0.288977	-0.00190434	2	-6.7777e-05	5.5031e-07
2	1	0	1	0	17.1463	-0.281425	-0.280989	-0.00154612	2	-6.79147e-05	4.34443e-07
2	1	0	1	0	17.2263	-0.273428	-0.272988	-0.0011634	2	-6.80225e-05	3.17595e-07
2	1	0	1	0	17.3063	-0.265431	-0.265003	-0.000761668	2	-6.80987e-05	2.01844e-07
2	1	0	1	0	17.3863	-0.257434	-0.256992	-0.000316118	2	-6.81416e-05	8.12396e-08
2	1	0	1	0	17.4663	-0.249438	-0.249016	0.00016806	2	-6.81471e-05	4.18496e-08
2	1	0	0	0	17.5461	-0.241441	-0.241009	0.000777073	2	-6.8109e-05	1.87281e-07
2	1	0	0	0	17.6261	-0.233444	-0.233016	0.00146207	2	-6.80198e-05	3.40688e-07
2	1	0	0	0	17.7061	-0.225448	-0.225007	0.00231946	2	-6.78691e-05	5.21896e-07
2	1	0	0	0	17.7861	-0.217451	-0.217022	0.00333594	2	-6.76433e-05	7.23972e-07
2	1	0	0	0	17.8661	-0.209454	-0.209003	0.00455356	2	-6.73276e-05	9.51708e-07
2	1	0	0	0	17.9461	-0.201457	-0.200996	0.00589826	2	-6.69091e-05	1.18553e-06
2	1	0	1	0	18.0259	-0.193461	-0.192992	0.00729731	2	-6.6382e-05	1.40832e-06
2	1	0	1	0	18.1059	-0.185464	-0.18498	0.00852817	2	-6.57467e-05	1.57754e-06
2	1	0	1	0	18.1859	-0.177467	-0.176971	0.00949362	2	-6.50227e-05	1.68009e-06
2	1	0	1	0	18.2659	-0.169471	-0.168988	0.0100276	2	-6.42383e-05	1.69454e-06
2	1	0	1	0	18.3459	-0.161474	-0.160957	0.0101637	2	-6.34273e-05	1.63592e-06
2	1	0	1	0	18.4259	-0.153477	-0.152984	0.00989366	2	-6.26228e-05	1.51357e-06
2	1	0	1	0	18.5058	-0.145476	-0.144972	0.00944781	2	-6.1849e-05	1.36966e-06
2	1	0	0	0	18.5857	-0.137484	-0.136974	0.00885578	2	-6.11174e-05	1.21301e-06
2	1	0	0	0	18.6657	-0.129487	-0.128996	0.00825788	2	-6.04328e-05	1.06524e-06
2	1	0	0	0	18.7457	-0.12149	-0.120995	0.0076991	2	-5.97941e-05	9.31553e-07
2	1	0	0	0	18.8257	-0.113494	-0.112993	0.00723526	2	-5.91968e-05	8.17535e-07
2	1	0	0	0	18.9057	-0.105497	-0.105	0.00680236	2	-5.86354e-05	7.14249e-07
2	1	0	0	0	18.9856	-0.0975094	-0.0970067	0.00647141	2	-5.8105e-05	6.27771e-07
2	1	0	1	0	19.0655	-0.0895036	-0.0889872	0.00617259	2	-5.75998e-05	5.49281e-07
2	1	0	1	0	19.1455	-0.0815069	-0.0810096	0.00592647	2	-5.71152e-05	4.801e-07
2	1	0	1	0	19.2255	-0.0735102	-0.0730139	0.00573689	2	-5.66485e-05	4.18873e-07
2	1	0	1	0	19.3055	-0.0655135	-0.0650204	0.00556958	2	-5.61962e-05	3.62137e-07
2	1	0	1	0	19.3855	-0.0575168	-0.0570038	0.00542819	2	-5.57557e-05	3.09428e-07
2	1	0	1	0	19.4655	-0.0495201	-0.0490265	0.00532327	2	-5.53253e-05	2.60981e-07
2	1	0	0	0	19.5453	-0.0415234	-0.0410435	0.00522686	2	-5.49036e-05	2.14529e-07
2	1	0	0	0	19.6253	-0.0335267	-0.0330441	0.00516836	2	-5.44874e-05	1.70784e-07
2	1	0	0	0	19.7053	-0.02553	-0.0250379	0.00510274	2	-5.40768e-05	1.27762e-07
2	1	0	0	0	19.7853	-0.0175333	-0.017052	0.00504809	2	-5.36703e-05	8.60801e-08
2	1	0	0	0	19.8653	-0.00953657	-0.00906169	0.00502252	2	-5.32666e-05	4.55125e-08
2	1	0	0	0	19.9453	-0.00153986	-0.00106225	0.0049976	2	-5.2865e-05	5.30871e-09
2	1	0	1	0	19.9621	0.000159438	0.000629884	0.00509336	2	-5.27808e-05	3.20823e-09

File: 6_pk_anti_2_C01_2.mpt
EC-Lab ASCII FILE
Nb header lines : 56

Cyclic Voltammetry

Run on channel : 1 (SN 0696)
User :
Electrode connection : standard
Ewe ctrl range : min = -2.50 V, max = 2.50 V
Ewe,I filtering : 50 kHz
Safety Limits :
	Do not start on E overload
Channel : Floating
Acquisition started on : 09/12/2016 16:23:20
Saved on :
	File : 6_pk_anti_2_C01.mpr
	Directory : \\userfs\st659\w2k\EC-Lab\Data\Meth_Blue 12-09-16\
	Host : 144.32.136.43
Device : SP-300 (SN 0182)
Address : USB
EC-Lab for windows v10.44 (software)
Internet server v10.44 (firmware)
Command interpretor v10.44 (firmware)
Electrode material :
Initial state :
Electrolyte :
Comments :
Cable : standard
Reference electrode : SCE Saturated Calomel Electrode (0.241 V)
Electrode surface area : 0.001 cm²
Characteristic mass : 0.001 g
Equivalent Weight : 0.000 g/eq.
Density : 0.000 g/cm3
Ei (V)              0.000
vs.                 Eoc
dE/dt               100.000
dE/dt unit          mV/s
E1 (V)              0.100
vs.                 Ref
Step percent        50
N                   10
E range min (V)     -2.500
E range max (V)     2.500
I Range             Auto
I Range min         Unset
I Range max         Unset
I Range init        Unset
Bandwidth           8
E2 (V)              -0.400
vs.                 Ref
nc cycles           2
Reverse Scan        1
Ef (V)              0.000
vs.                 Eoc

mode	ox/red	error	control changes	counter inc.	time/s	control/V	Ewe/V	<I>/mA	cycle number	(Q-Qo)/C	P/W
2	1	0	1	1	9.9658	-0.00516757	-0.00473901	0.00459468	2	-3.28611e-05	2.17743e-08
2	1	0	0	1	10.0413	0.00237933	0.00281699	0.00458775	2	-3.24907e-05	1.29236e-08
2	1	0	0	1	10.1213	0.010376	0.0108183	0.00464323	2	-3.20991e-05	5.0232e-08
2	1	0	0	1	10.2013	0.0183727	0.0188364	0.00465562	2	-3.17076e-05	8.76952e-08
2	1	0	0	1	10.2813	0.0263695	0.0268045	0.00462034	2	-3.13159e-05	1.23846e-07
2	1	0	0	1	10.3613	0.0343662	0.0348056	0.00462882	2	-3.09231e-05	1.61109e-07
2	1	0	0	1	10.4413	0.0423629	0.0428014	0.0046768	2	-3.05283e-05	2.00174e-07
2	1	0	1	1	10.5211	0.0503596	0.0508	0.0046998	2	-3.01319e-05	2.3875e-07
2	1	0	1	1	10.6011	0.0583563	0.0588041	0.00474749	2	-2.97318e-05	2.79172e-07
2	1	0	1	1	10.6811	0.066353	0.0668046	0.00480256	2	-2.93281e-05	3.20833e-07
2	1	0	1	1	10.7611	0.0743497	0.0747848	0.00487513	2	-2.89201e-05	3.64585e-07
2	1	0	1	1	10.8411	0.0823464	0.0827963	0.0048965	2	-2.8507e-05	4.05412e-07
2	1	0	1	1	10.9211	0.0903431	0.0907855	0.00502005	2	-2.80881e-05	4.55748e-07
2	1	0	0	1	11.0009	0.0983398	0.0987833	0.00509	2	-2.7663e-05	5.02807e-07
2	0	0	0	1	11.0785	0.0939416	0.0943219	0.0014092	2	-2.74472e-05	1.32918e-07
2	0	0	1	1	11.1733	0.0844456	0.0848121	0.000412656	2	-2.73629e-05	3.49982e-08
2	0	0	1	1	11.2533	0.0764488	0.0768135	-4.14627e-05	2	-2.73502e-05	3.1849e-09
2	0	0	1	1	11.3333	0.0684522	0.0688437	-0.000374645	2	-2.73675e-05	2.5792e-08
2	0	0	1	1	11.4133	0.0604554	0.0608218	-0.000609437	2	-2.74081e-05	3.70671e-08
2	0	0	1	1	11.4933	0.0524587	0.0528349	-0.000829545	2	-2.74667e-05	4.38289e-08
2	0	0	1	1	11.5733	0.044462	0.0448143	-0.00100115	2	-2.75405e-05	4.48657e-08
2	0	0	0	1	11.6531	0.0364653	0.0368238	-0.00116347	2	-2.76276e-05	4.28434e-08
2	0	0	0	1	11.7331	0.0284686	0.0288277	-0.0012788	2	-2.77257e-05	3.68648e-08
2	0	0	0	1	11.8131	0.0204719	0.0208535	-0.00139678	2	-2.78337e-05	2.91278e-08
2	0	0	0	1	11.8931	0.0124752	0.0128314	-0.00151003	2	-2.79509e-05	1.93757e-08
2	0	0	0	1	11.9731	0.00447846	0.00484255	-0.00159754	2	-2.80763e-05	7.73618e-09
2	0	0	0	1	12.0531	-0.00351825	-0.0031624	-0.00169404	2	-2.82096e-05	5.35722e-09
2	0	0	1	1	12.1329	-0.011515	-0.0111546	-0.00180198	2	-2.835e-05	2.01004e-08
2	0	0	1	1	12.2129	-0.0195117	-0.0191424	-0.00187237	2	-2.84974e-05	3.58417e-08
2	0	0	1	1	12.2929	-0.0275084	-0.0271385	-0.00196614	2	-2.86515e-05	5.33581e-08
2	0	0	1	1	12.3729	-0.0355051	-0.0351474	-0.00202783	2	-2.88119e-05	7.1273e-08
2	0	0	1	1	12.4529	-0.0435018	-0.0431545	-0.00210862	2	-2.89791e-05	9.09964e-08
2	0	0	1	1	12.5329	-0.0514985	-0.0511399	-0.00218609	2	-2.91526e-05	1.11797e-07
2	0	0	0	1	12.6127	-0.0594952	-0.0591521	-0.00228439	2	-2.93323e-05	1.35126e-07
2	0	0	0	1	12.6927	-0.067492	-0.0671422	-0.00236421	2	-2.9519e-05	1.58738e-07
2	0	0	0	1	12.7727	-0.0754887	-0.0751236	-0.00245071	2	-2.97126e-05	1.84106e-07
2	0	0	0	1	12.8527	-0.0834854	-0.0831199	-0.00255311	2	-2.99134e-05	2.12214e-07
2	0	0	0	1	12.9327	-0.0914821	-0.0911248	-0.00266257	2	-3.01226e-05	2.42626e-07
2	0	0	0	1	13.0127	-0.0994788	-0.09912	-0.00278143	2	-3.03407e-05	2.75696e-07
2	0	0	1	1	13.0925	-0.107476	-0.107115	-0.00292834	2	-3.05693e-05	3.13669e-07
2	0	0	1	1	13.1725	-0.115472	-0.115112	-0.00310722	2	-3.08113e-05	3.57677e-07
2	0	0	1	1	13.2525	-0.123469	-0.123109	-0.00334555	2	-3.10694e-05	4.11869e-07
2	0	0	1	1	13.3325	-0.131466	-0.131113	-0.00366109	2	-3.13491e-05	4.80018e-07
2	0	0	1	1	13.4125	-0.139462	-0.139106	-0.00407532	2	-3.16576e-05	5.66901e-07
2	0	0	1	1	13.4925	-0.147459	-0.147119	-0.00463612	2	-3.20052e-05	6.82061e-07
2	0	0	0	1	13.5723	-0.155456	-0.15511	-0.00536512	2	-3.24043e-05	8.32182e-07
2	0	0	0	1	13.6523	-0.163453	-0.163111	-0.00630977	2	-3.28708e-05	1.02919e-06
2	0	0	0	1	13.7323	-0.171449	-0.171121	-0.00742182	2	-3.34199e-05	1.27003e-06
2	0	0	0	1	13.8123	-0.179446	-0.179111	-0.00863895	2	-3.40628e-05	1.54733e-06
2	0	0	0	1	13.8923	-0.187443	-0.187116	-0.00985438	2	-3.4804e-05	1.84391e-06
2	0	0	1	1	14.0033	-0.198538	-0.198175	-0.0110312	2	-3.59761e-05	2.18611e-06
2	0	0	0	1	14.0831	-0.206535	-0.206181	-0.0118877	2	-3.69132e-05	2.45102e-06
2	0	0	0	1	14.1631	-0.214532	-0.214179	-0.0124235	2	-3.79076e-05	2.66086e-06
2	0	0	0	1	14.2431	-0.222528	-0.222177	-0.0128063	2	-3.89404e-05	2.84527e-06
2	0	0	0	1	14.3231	-0.230525	-0.230172	-0.0130549	2	-3.99963e-05	3.00487e-06
2	0	0	0	1	14.4031	-0.238522	-0.238169	-0.0131041	2	-4.10639e-05	3.12099e-06
2	0	0	0	1	14.4831	-0.246518	-0.246165	-0.0131195	2	-4.21359e-05	3.22957e-06
2	0	0	1	1	14.5629	-0.254515	-0.254165	-0.0130885	2	-4.32039e-05	3.32663e-06
2	0	0	1	1	14.6429	-0.262512	-0.262147	-0.0130358	2	-4.42695e-05	3.4173e-06
2	0	0	1	1	14.7229	-0.270509	-0.27016	-0.0129552	2	-4.5329e-05	3.49996e-06
2	0	0	1	1	14.8029	-0.278505	-0.278154	-0.0128533	2	-4.63819e-05	3.57519e-06
2	0	0	1	1	14.8829	-0.286502	-0.28614	-0.012794	2	-4.74288e-05	3.66089e-06
2	0	0	1	1	14.9629	-0.294499	-0.294166	-0.0127345	2	-4.84714e-05	3.74606e-06
2	0	0	0	1	15.0427	-0.302495	-0.302154	-0.0127418	2	-4.95087e-05	3.84997e-06
2	0	0	0	1	15.1227	-0.310492	-0.310166	-0.0127087	2	-5.05479e-05	3.9418e-06
2	0	0	0	1	15.2027	-0.318489	-0.318137	-0.0127482	2	-5.15883e-05	4.05569e-06
2	0	0	0	1	15.2827	-0.326486	-0.32614	-0.0128389	2	-5.26325e-05	4.18727e-06
2	0	0	0	1	15.3627	-0.334482	-0.334125	-0.0129435	2	-5.36829e-05	4.32476e-06
2	0	0	0	1	15.4427	-0.342479	-0.342132	-0.0130662	2	-5.47419e-05	4.47038e-06
2	0	0	1	1	15.5225	-0.350476	-0.350116	-0.013224	2	-5.581e-05	4.62992e-06
2	0	0	1	1	15.6025	-0.358472	-0.358133	-0.0134117	2	-5.68942e-05	4.80316e-06
2	0	0	1	1	15.6825	-0.366469	-0.366129	-0.0136413	2	-5.79946e-05	4.99446e-06
2	0	0	1	1	15.7625	-0.374466	-0.374126	-0.0138471	2	-5.91141e-05	5.18055e-06
2	0	0	1	1	15.8425	-0.382463	-0.382122	-0.0141733	2	-6.02549e-05	5.41593e-06
2	0	0	1	1	15.9225	-0.390459	-0.390113	-0.0144681	2	-6.14196e-05	5.64419e-06
2	0	0	0	1	16.0023	-0.398456	-0.398128	-0.0148396	2	-6.26085e-05	5.90808e-06
[...]
2	1	0	0	0	16.3137	-0.370467	-0.370072	-0.00745114	2	-6.5523e-05	2.75746e-06
2	1	0	0	0	16.3937	-0.362471	-0.36208	-0.00679525	2	-6.60713e-05	2.46042e-06
2	1	0	0	0	16.4737	-0.354474	-0.354102	-0.00614423	2	-6.65669e-05	2.17569e-06
2	1	0	0	0	16.5536	-0.346484	-0.3461	-0.005534	2	-6.70139e-05	1.91532e-06
2	1	0	1	0	16.6335	-0.338481	-0.338077	-0.0050335	2	-6.74166e-05	1.70171e-06
2	1	0	0	0	16.7445	-0.327385	-0.326998	-0.00415137	2	-6.79162e-05	1.35749e-06
2	1	0	0	0	16.8245	-0.319388	-0.319011	-0.00369727	2	-6.82293e-05	1.17947e-06
2	1	0	0	0	16.9045	-0.311392	-0.311016	-0.00327699	2	-6.85073e-05	1.0192e-06
2	1	0	0	0	16.9845	-0.303395	-0.303013	-0.00285585	2	-6.87517e-05	8.6536e-07
2	1	0	1	0	17.0643	-0.295398	-0.295004	-0.00246185	2	-6.89631e-05	7.26255e-07
2	1	0	1	0	17.1443	-0.287402	-0.286993	-0.00207367	2	-6.91435e-05	5.95129e-07
2	1	0	1	0	17.2243	-0.279405	-0.279015	-0.00167922	2	-6.92932e-05	4.68528e-07
2	1	0	1	0	17.3043	-0.271408	-0.271017	-0.0012841	2	-6.94109e-05	3.48014e-07
2	1	0	1	0	17.3843	-0.263411	-0.262996	-0.000862333	2	-6.94953e-05	2.2679e-07
2	1	0	1	0	17.4643	-0.255415	-0.255017	-0.000384866	2	-6.95446e-05	9.81473e-08
2	1	0	0	0	17.5441	-0.247418	-0.247015	0.000160846	2	-6.95538e-05	3.97313e-08
2	1	0	0	0	17.6241	-0.239421	-0.239031	0.000760824	2	-6.95171e-05	1.81861e-07
2	1	0	0	0	17.7041	-0.231425	-0.23102	0.00151083	2	-6.94268e-05	3.49031e-07
2	1	0	0	0	17.7841	-0.223428	-0.223035	0.00240322	2	-6.92715e-05	5.36002e-07
2	1	0	0	0	17.8641	-0.215431	-0.215037	0.00344857	2	-6.90381e-05	7.41568e-07
2	1	0	0	0	17.9441	-0.207434	-0.207031	0.00468417	2	-6.87123e-05	9.6977e-07
2	1	0	1	0	18.0239	-0.199438	-0.199005	0.00606043	2	-6.82831e-05	1.20605e-06
2	1	0	1	0	18.1039	-0.191441	-0.191013	0.00739254	2	-6.7744e-05	1.41207e-06
2	1	0	1	0	18.1839	-0.183444	-0.182975	0.00858107	2	-6.71024e-05	1.57013e-06
2	1	0	1	0	18.2639	-0.175448	-0.174997	0.00944364	2	-6.63785e-05	1.65261e-06
2	1	0	1	0	18.3439	-0.167451	-0.166996	0.00987799	2	-6.5602e-05	1.64959e-06
2	1	0	1	0	18.4239	-0.159454	-0.15898	0.00991486	2	-6.48067e-05	1.57626e-06
2	1	0	1	0	18.5038	-0.151455	-0.150981	0.00967475	2	-6.40237e-05	1.4607e-06
2	1	0	0	0	18.5837	-0.143461	-0.142991	0.00914531	2	-6.32723e-05	1.30769e-06
2	1	0	0	0	18.6637	-0.135464	-0.134979	0.00858036	2	-6.25628e-05	1.15817e-06
2	1	0	0	0	18.7437	-0.127467	-0.126988	0.00801408	2	-6.18989e-05	1.01769e-06
2	1	0	0	0	18.8237	-0.119471	-0.119019	0.00750168	2	-6.12784e-05	8.92845e-07
2	1	0	0	0	18.9037	-0.111474	-0.111013	0.00704925	2	-6.06963e-05	7.82556e-07
2	1	0	0	0	18.9837	-0.103477	-0.103007	0.00666837	2	-6.01473e-05	6.86887e-07
2	1	0	1	0	19.0635	-0.0954805	-0.0949988	0.00634962	2	-5.9627e-05	6.03206e-07
2	1	0	1	0	19.1435	-0.0874837	-0.0869934	0.0061016	2	-5.91291e-05	5.30799e-07
2	1	0	1	0	19.2235	-0.079487	-0.0790277	0.00587061	2	-5.86509e-05	4.63941e-07
2	1	0	1	0	19.3035	-0.0714903	-0.0710303	0.00568497	2	-5.81886e-05	4.03805e-07
2	1	0	1	0	19.3835	-0.0634936	-0.0630532	0.00554778	2	-5.77395e-05	3.49805e-07
2	1	0	1	0	19.4635	-0.0554969	-0.0550518	0.00541273	2	-5.73009e-05	2.9798e-07
2	1	0	0	0	19.5433	-0.0475002	-0.0470547	0.00531909	2	-5.6872e-05	2.50288e-07
2	1	0	0	0	19.6233	-0.0395035	-0.039047	0.00523526	2	-5.64494e-05	2.04421e-07
2	1	0	0	0	19.7033	-0.0315068	-0.0310558	0.00517312	2	-5.60326e-05	1.60656e-07
2	1	0	0	0	19.7833	-0.02351	-0.0230615	0.00512011	2	-5.56203e-05	1.18077e-07
2	1	0	0	0	19.8633	-0.0155133	-0.0150625	0.00509015	2	-5.52116e-05	7.66702e-08
2	1	0	0	0	19.9433	-0.00751661	-0.00707214	0.00505833	2	-5.4805e-05	3.57732e-08
2	1	0	0	0	19.9622	-0.00561739	-0.00517027	0.00509899	2	-5.47091e-05	2.63631e-08