Folder: CV/TAP_Report/Data/MB_SHU (part 4)

File: 100 uM MB 10mM PB Second ITO_07_CV_C01_2.mpt
EC-Lab ASCII FILE
Nb header lines : 53

Cyclic Voltammetry

Run on channel : 1 (SN 0696)
User :
Electrode connection : standard
Ewe ctrl range : min = -10.00 V, max = 10.00 V
Ewe,I filtering : 50 kHz
Channel : Grounded
Acquisition started on : 05/17/2017 12:14:48
Saved on :
	File : 100 uM MB 10mM PB Second ITO_07_CV_C01.mpr
	Directory : \\userfs\st659\w2k\EC-Lab\Data\ITO Characterisation 17-5-17\
	Host : 144.32.136.43
Device : SP-300 (SN 0182)
Address : USB
EC-Lab for windows v10.44 (software)
Internet server v10.44 (firmware)
Command interpretor v10.44 (firmware)
Electrode material :
Initial state :
Electrolyte :
Comments :
Cable : standard
Electrode surface area : 0.001 cm²
Characteristic mass : 0.001 g
Equivalent Weight : 0.000 g/eq.
Density : 0.000 g/cm3
Ei (V)              0.000
vs.                 Eoc
dE/dt               2500.000
dE/dt unit          mV/s
E1 (V)              0.100
vs.                 Ref
Step percent        50
N                   10
E range min (V)     -10.000
E range max (V)     10.000
I Range             Auto
I Range min         Unset
I Range max         Unset
I Range init        Unset
Bandwidth           8
E2 (V)              -0.600
vs.                 Ref
nc cycles           2
Reverse Scan        1
Ef (V)              0.000
vs.                 Eoc

mode	ox/red	error	control changes	counter inc.	time/s	control/V	Ewe/V	<I>/mA	cycle number	(Q-Qo)/C	P/W
2	1	0	0	1	422.903	-0.599827	-0.60005	-0.0183284	2	-4.08992e-06	1.0998e-05
2	1	0	1	1	422.908	-0.586999	-0.587228	-0.0101287	2	-4.15651e-06	5.94788e-06
2	1	0	1	1	422.914	-0.572004	-0.572247	-0.00672172	2	-4.20558e-06	3.84648e-06
2	1	0	1	1	422.92	-0.55701	-0.557234	-0.0048456	2	-4.23968e-06	2.70013e-06
2	1	0	1	1	422.926	-0.542016	-0.542221	-0.00359594	2	-4.26467e-06	1.94979e-06
2	1	0	1	1	422.932	-0.527022	-0.527255	-0.00267842	2	-4.28329e-06	1.41221e-06
2	1	0	1	1	422.938	-0.512027	-0.512252	-0.00194905	2	-4.29699e-06	9.98407e-07
2	1	0	1	1	422.944	-0.497033	-0.497254	-0.00134019	2	-4.30674e-06	6.66416e-07
2	1	0	1	1	422.95	-0.482039	-0.482246	-0.000842996	2	-4.31321e-06	4.06531e-07
2	1	0	1	1	422.956	-0.467044	-0.467269	-0.000392351	2	-4.31685e-06	1.83333e-07
2	1	0	1	1	422.962	-0.45205	-0.452249	6.12697e-06	2	-4.31795e-06	2.77092e-09
2	1	0	1	1	422.968	-0.436889	-0.437125	0.000380216	2	-4.31657e-06	1.66202e-07
2	1	0	1	1	422.974	-0.421895	-0.422141	0.000695422	2	-4.31329e-06	2.93566e-07
2	1	0	1	1	422.98	-0.406901	-0.407119	0.00101783	2	-4.30809e-06	4.14379e-07
2	1	0	1	1	422.986	-0.391906	-0.392127	0.00132448	2	-4.30105e-06	5.19363e-07
2	1	0	1	1	422.992	-0.376912	-0.377118	0.00163672	2	-4.29215e-06	6.17234e-07
2	1	0	1	1	422.998	-0.361918	-0.362125	0.00191944	2	-4.28144e-06	6.95077e-07
2	1	0	1	1	423.004	-0.346924	-0.34713	0.00222649	2	-4.26901e-06	7.7288e-07
2	1	0	1	1	423.01	-0.331929	-0.332119	0.00254633	2	-4.25464e-06	8.45685e-07
2	1	0	1	1	423.016	-0.316935	-0.317133	0.00287271	2	-4.23834e-06	9.1103e-07
2	1	0	1	1	423.022	-0.301941	-0.302141	0.003253	2	-4.21997e-06	9.82865e-07
2	1	0	1	1	423.028	-0.286946	-0.287118	0.00368894	2	-4.19912e-06	1.05916e-06
2	1	0	1	1	423.034	-0.271952	-0.272157	0.00420019	2	-4.17544e-06	1.14311e-06
2	1	0	1	1	423.04	-0.256958	-0.257136	0.00486012	2	-4.1483e-06	1.24971e-06
2	1	0	1	1	423.046	-0.241964	-0.242145	0.00569856	2	-4.11671e-06	1.37988e-06
2	1	0	1	1	423.052	-0.226969	-0.227193	0.00673713	2	-4.07941e-06	1.53063e-06
2	1	0	1	1	423.058	-0.211975	-0.212164	0.00808171	2	-4.03487e-06	1.71465e-06
2	1	0	1	1	423.064	-0.196981	-0.197152	0.00970328	2	-3.98143e-06	1.91302e-06
2	1	0	1	1	423.07	-0.181986	-0.182186	0.0114773	2	-3.91781e-06	2.091e-06
2	1	0	1	1	423.076	-0.166992	-0.167186	0.0133449	2	-3.84322e-06	2.23108e-06
2	1	0	1	1	423.082	-0.151998	-0.152169	0.0151122	2	-3.75763e-06	2.29961e-06
2	1	0	1	1	423.088	-0.137004	-0.137185	0.0167423	2	-3.66179e-06	2.29679e-06
2	1	0	1	1	423.094	-0.122009	-0.122171	0.0179265	2	-3.55752e-06	2.1901e-06
2	1	0	1	1	423.1	-0.107015	-0.107165	0.0186013	2	-3.44746e-06	1.99342e-06
2	1	0	1	1	423.106	-0.0920207	-0.0921619	0.0187728	2	-3.33515e-06	1.73013e-06
2	1	0	1	1	423.112	-0.0770264	-0.0772112	0.0183073	2	-3.22396e-06	1.41353e-06
2	1	0	1	1	423.118	-0.0620321	-0.062201	0.0173936	2	-3.11677e-06	1.0819e-06
2	1	0	1	1	423.124	-0.0470379	-0.0472251	0.0163788	2	-3.01542e-06	7.73492e-07
2	1	0	1	1	423.13	-0.0320436	-0.032215	0.0154079	2	-2.92023e-06	4.96365e-07
2	1	0	1	1	423.136	-0.0170493	-0.0172141	0.0143782	2	-2.83109e-06	2.47507e-07
2	1	0	1	1	423.142	-0.0018884	-0.00205757	0.0135956	2	-2.74707e-06	2.79738e-08
2	1	0	1	1	423.148	0.0131059	0.0129724	0.0129706	2	-2.66754e-06	1.6826e-07
2	1	0	1	1	423.154	0.0281002	0.0279574	0.0123779	2	-2.59163e-06	3.46056e-07
2	1	0	1	1	423.16	0.0430944	0.0429575	0.0119342	2	-2.51878e-06	5.12664e-07
2	1	0	1	1	423.166	0.0580887	0.0580061	0.011542	2	-2.44846e-06	6.69509e-07
2	1	0	1	1	423.172	0.073083	0.0729668	0.0112084	2	-2.38026e-06	8.17838e-07
2	1	0	1	1	423.178	0.0880773	0.0879259	0.0109283	2	-2.3139e-06	9.60882e-07
2	1	0	1	1	423.183	0.0999061	0.0998031	0.0107858	2	-2.26295e-06	1.07645e-06
2	0	0	0	1	423.185	0.0970738	0.097002	0.00760198	2	-2.25021e-06	7.37407e-07
2	0	0	0	1	423.191	0.0820795	0.0819851	0.00316414	2	-2.22174e-06	2.59412e-07
2	0	0	0	1	423.197	0.0670853	0.0669999	0.00171168	2	-2.20765e-06	1.14683e-07
2	0	0	0	1	423.203	0.052091	0.0520176	0.00076187	2	-2.20043e-06	3.96307e-08
2	0	0	0	1	423.209	0.0370967	0.03699	3.83764e-05	2	-2.19818e-06	1.41954e-09
2	0	0	0	1	423.215	0.0221024	0.0220052	-0.000558408	2	-2.19986e-06	1.22879e-08
2	0	0	0	1	423.221	0.00710817	0.00700404	-0.00108504	2	-2.20486e-06	7.59963e-09
2	0	0	0	1	423.227	-0.00788611	-0.00801194	-0.0015627	2	-2.21287e-06	1.25202e-08
2	0	0	0	1	423.233	-0.023047	-0.0231716	-0.0020155	2	-2.22381e-06	4.67025e-08
2	0	0	0	1	423.239	-0.0380413	-0.0381666	-0.00243937	2	-2.23722e-06	9.31024e-08
2	0	0	0	1	423.245	-0.0530356	-0.053197	-0.00287321	2	-2.2532e-06	1.52846e-07
2	0	0	0	1	423.251	-0.0680299	-0.068192	-0.00331351	2	-2.27178e-06	2.25955e-07
2	0	0	0	1	423.257	-0.0830241	-0.0831637	-0.00381206	2	-2.29317e-06	3.17025e-07
2	0	0	0	1	423.263	-0.0980184	-0.0981538	-0.00439743	2	-2.31777e-06	4.31624e-07
2	0	0	0	1	423.269	-0.113013	-0.113119	-0.00509588	2	-2.34624e-06	5.76442e-07
2	0	0	0	1	423.275	-0.128007	-0.128147	-0.00602675	2	-2.37958e-06	7.72312e-07
2	0	0	0	1	423.281	-0.143001	-0.143148	-0.00715156	2	-2.4191e-06	1.02373e-06
2	0	0	0	1	423.287	-0.157996	-0.158138	-0.00851366	2	-2.46613e-06	1.34634e-06
2	0	0	0	1	423.293	-0.17299	-0.173139	-0.0100958	2	-2.52205e-06	1.74797e-06
2	0	0	0	1	423.299	-0.187984	-0.188156	-0.0118228	2	-2.58793e-06	2.22454e-06
2	0	0	0	1	423.305	-0.202978	-0.203114	-0.0136393	2	-2.66438e-06	2.77035e-06
2	0	0	0	1	423.311	-0.217973	-0.21813	-0.0153608	2	-2.75159e-06	3.35065e-06
2	0	0	0	1	423.317	-0.232967	-0.233132	-0.0169897	2	-2.8488e-06	3.96085e-06
2	0	0	0	1	423.323	-0.247961	-0.248115	-0.0183099	2	-2.95489e-06	4.54297e-06
2	0	0	0	1	423.329	-0.262956	-0.2631	-0.0193835	2	-3.06819e-06	5.09981e-06
2	0	0	0	1	423.335	-0.27795	-0.278082	-0.0201523	2	-3.18726e-06	5.60397e-06
2	0	0	0	1	423.341	-0.292944	-0.293075	-0.0205758	2	-3.30957e-06	6.03025e-06
2	0	0	0	1	423.347	-0.307938	-0.308105	-0.0206129	2	-3.43316e-06	6.35095e-06
2	0	0	0	1	423.353	-0.322933	-0.323089	-0.0202664	2	-3.5557e-06	6.54785e-06
2	0	0	0	1	423.359	-0.337927	-0.338095	-0.0197302	2	-3.67564e-06	6.67068e-06
2	0	0	0	1	423.365	-0.352921	-0.35311	-0.0191322	2	-3.79215e-06	6.75578e-06
2	0	0	0	1	423.371	-0.367916	-0.368084	-0.0184522	2	-3.90475e-06	6.79196e-06
2	0	0	0	1	423.377	-0.38291	-0.383096	-0.017898	2	-4.01359e-06	6.85666e-06
2	0	0	0	1	423.383	-0.397904	-0.398111	-0.0173945	2	-4.11938e-06	6.92495e-06
2	0	0	0	1	423.389	-0.412898	-0.413093	-0.0169846	2	-4.22237e-06	7.0162e-06
2	0	0	0	1	423.395	-0.427893	-0.428073	-0.016671	2	-4.32317e-06	7.13643e-06
2	0	0	0	1	423.401	-0.442887	-0.443063	-0.0164063	2	-4.42222e-06	7.26905e-06
2	0	0	0	1	423.407	-0.458048	-0.458215	-0.0162254	2	-4.52028e-06	7.43471e-06
2	0	0	0	1	423.413	-0.473042	-0.473231	-0.016093	2	-4.61714e-06	7.61571e-06
2	0	0	0	1	423.419	-0.488036	-0.488227	-0.016016	2	-4.71342e-06	7.81946e-06
2	0	0	0	1	423.425	-0.503031	-0.50323	-0.0159708	2	-4.80942e-06	8.037e-06
2	0	0	0	1	423.431	-0.518025	-0.518205	-0.0159996	2	-4.90532e-06	8.29107e-06
2	0	0	0	1	423.437	-0.533019	-0.533192	-0.0160521	2	-5.00142e-06	8.55887e-06
2	0	0	0	1	423.443	-0.548014	-0.5482	-0.016161	2	-5.09807e-06	8.85948e-06
2	0	0	0	1	423.449	-0.563008	-0.563209	-0.0163612	2	-5.1955e-06	9.21476e-06
2	0	0	0	1	423.455	-0.578002	-0.578186	-0.0165359	2	-5.29426e-06	9.56081e-06
2	0	0	0	1	423.461	-0.592996	-0.593178	-0.0169003	2	-5.39466e-06	1.00249e-05
2	0	0	1	1	423.464	-0.60016	-0.60031	-0.0170564	2	-5.44389e-06	1.02391e-05

File: 100 uM MB 10mM PB Second ITO_08_CV_C01_2.mpt
EC-Lab ASCII FILE
Nb header lines : 53

Cyclic Voltammetry

Run on channel : 1 (SN 0696)
User :
Electrode connection : standard
Ewe ctrl range : min = -10.00 V, max = 10.00 V
Ewe,I filtering : 50 kHz
Channel : Grounded
Acquisition started on : 05/17/2017 12:14:48
Saved on :
	File : 100 uM MB 10mM PB Second ITO_08_CV_C01.mpr
	Directory : \\userfs\st659\w2k\EC-Lab\Data\ITO Characterisation 17-5-17\
	Host : 144.32.136.43
Device : SP-300 (SN 0182)
Address : USB
EC-Lab for windows v10.44 (software)
Internet server v10.44 (firmware)
Command interpretor v10.44 (firmware)
Electrode material :
Initial state :
Electrolyte :
Comments :
Cable : standard
Electrode surface area : 0.001 cm²
Characteristic mass : 0.001 g
Equivalent Weight : 0.000 g/eq.
Density : 0.000 g/cm3
Ei (V)              0.000
vs.                 Eoc
dE/dt               5000.000
dE/dt unit          mV/s
E1 (V)              0.100
vs.                 Ref
Step percent        50
N                   10
E range min (V)     -10.000
E range max (V)     10.000
I Range             Auto
I Range min         Unset
I Range max         Unset
I Range init        Unset
Bandwidth           8
E2 (V)              -0.600
vs.                 Ref
nc cycles           2
Reverse Scan        1
Ef (V)              0.000
vs.                 Eoc

mode	ox/red	error	control changes	counter inc.	time/s	control/V	Ewe/V	<I>/mA	cycle number	(Q-Qo)/C	P/W
2	1	0	0	1	424.74	-0.599161	-0.59947	-0.0346336	2	-3.81714e-06	2.07618e-05
2	1	0	1	1	424.743	-0.583667	-0.583918	-0.0218293	2	-3.8995e-06	1.27465e-05
2	1	0	1	1	424.747	-0.563674	-0.563914	-0.0133457	2	-3.96765e-06	7.52585e-06
2	1	0	1	1	424.751	-0.543682	-0.543887	-0.0082869	2	-4.00985e-06	4.50714e-06
2	1	0	1	1	424.755	-0.523689	-0.523904	-0.004933	2	-4.03561e-06	2.58442e-06
2	1	0	1	1	424.759	-0.503697	-0.50392	-0.00255175	2	-4.05014e-06	1.28588e-06
2	1	0	1	1	424.763	-0.483705	-0.483909	-0.000778561	2	-4.05648e-06	3.76753e-07
2	1	0	1	1	424.767	-0.463712	-0.463914	0.000618718	2	-4.05659e-06	2.87032e-07
2	1	0	1	1	424.771	-0.44372	-0.443937	0.00172601	2	-4.05171e-06	7.66238e-07
2	1	0	1	1	424.775	-0.423728	-0.423955	0.00267753	2	-4.04277e-06	1.13515e-06
2	1	0	1	1	424.779	-0.403735	-0.403956	0.00349901	2	-4.03031e-06	1.41345e-06
2	1	0	1	1	424.783	-0.383743	-0.383962	0.00425115	2	-4.01474e-06	1.63228e-06
2	1	0	1	1	424.787	-0.36375	-0.363932	0.00493406	2	-3.99626e-06	1.79566e-06
2	1	0	1	1	424.791	-0.343758	-0.343968	0.00560776	2	-3.97514e-06	1.92889e-06
2	1	0	1	1	424.795	-0.323766	-0.32394	0.00629295	2	-3.95126e-06	2.03854e-06
2	1	0	1	1	424.799	-0.303773	-0.303964	0.00699672	2	-3.92465e-06	2.12675e-06
2	1	0	1	1	424.803	-0.283781	-0.283928	0.00781136	2	-3.89496e-06	2.21786e-06
2	1	0	1	1	424.807	-0.263789	-0.263962	0.00876921	2	-3.86182e-06	2.31474e-06
2	1	0	1	1	424.811	-0.243796	-0.243985	0.0100089	2	-3.82424e-06	2.44203e-06
2	1	0	1	1	424.815	-0.223804	-0.223999	0.0116795	2	-3.78086e-06	2.61618e-06
2	1	0	1	1	424.819	-0.203811	-0.203989	0.0138865	2	-3.72963e-06	2.83268e-06
2	1	0	1	1	424.823	-0.183819	-0.184023	0.0166487	2	-3.6685e-06	3.06375e-06
2	1	0	1	1	424.827	-0.163827	-0.163998	0.0197987	2	-3.59539e-06	3.24695e-06
2	1	0	1	1	424.831	-0.143834	-0.144009	0.0230071	2	-3.50935e-06	3.31323e-06
2	1	0	1	1	424.835	-0.123842	-0.123997	0.026088	2	-3.41068e-06	3.23483e-06
2	1	0	1	1	424.839	-0.10385	-0.103989	0.0283407	2	-3.30149e-06	2.94714e-06
2	1	0	1	1	424.843	-0.0838571	-0.084022	0.0296891	2	-3.18506e-06	2.49453e-06
2	1	0	1	1	424.847	-0.0638648	-0.0640288	0.0299118	2	-3.06561e-06	1.91522e-06
2	1	0	1	1	424.851	-0.0438724	-0.0440369	0.0291619	2	-2.94727e-06	1.2842e-06
2	1	0	1	1	424.855	-0.02388	-0.0240104	0.0276876	2	-2.83348e-06	6.64791e-07
2	1	0	1	1	424.859	-0.00355443	-0.00370879	0.0261147	2	-2.72601e-06	9.68539e-08
2	1	0	1	1	424.863	0.0164379	0.016338	0.0243497	2	-2.62517e-06	3.97826e-07
2	1	0	1	1	424.867	0.0364303	0.0363077	0.0228655	2	-2.53105e-06	8.30193e-07
2	1	0	1	1	424.871	0.0564227	0.0563316	0.0216047	2	-2.44227e-06	1.21702e-06
2	1	0	1	1	424.875	0.076415	0.0763014	0.0205246	2	-2.35813e-06	1.56606e-06
2	1	0	1	1	424.879	0.0954078	0.0952884	0.0197866	2	-2.28171e-06	1.88544e-06
2	1	0	0	1	424.88	0.100906	0.100807	0.0195732	2	-2.26005e-06	1.97311e-06
2	0	0	0	1	424.881	0.0944082	0.0943954	0.013055	2	-2.24159e-06	1.23233e-06
2	0	0	0	1	424.885	0.0744158	0.0743651	0.00479388	2	-2.2094e-06	3.56497e-07
2	0	0	0	1	424.889	0.0544234	0.0544044	0.00147324	2	-2.19772e-06	8.01509e-08
2	0	0	0	1	424.893	0.0344311	0.034376	-0.000593878	2	-2.19637e-06	2.04152e-08
2	0	0	0	1	424.897	0.0144387	0.0143864	-0.00209458	2	-2.202e-06	3.01335e-08
2	0	0	0	1	424.901	-0.00555366	-0.00565571	-0.00331502	2	-2.21302e-06	1.87488e-08
2	0	0	0	1	424.905	-0.0258792	-0.0259601	-0.00442872	2	-2.22884e-06	1.1497e-07
2	0	0	0	1	424.909	-0.0458716	-0.0459753	-0.00537182	2	-2.24849e-06	2.46971e-07
2	0	0	0	1	424.913	-0.065864	-0.0659689	-0.00629688	2	-2.27191e-06	4.15399e-07
2	0	0	0	1	424.917	-0.0858564	-0.0859502	-0.00733037	2	-2.29925e-06	6.30047e-07
2	0	0	0	1	424.921	-0.105849	-0.105909	-0.00851023	2	-2.33096e-06	9.01307e-07
2	0	0	0	1	424.925	-0.125841	-0.12592	-0.0100027	2	-2.36804e-06	1.25954e-06
2	0	0	0	1	424.929	-0.145834	-0.145932	-0.0118592	2	-2.41187e-06	1.73064e-06
2	0	0	0	1	424.933	-0.165826	-0.16594	-0.0142378	2	-2.46424e-06	2.36263e-06
2	0	0	0	1	424.937	-0.185818	-0.185938	-0.0169896	2	-2.5269e-06	3.15901e-06
2	0	0	0	1	424.941	-0.205811	-0.205906	-0.020021	2	-2.60122e-06	4.12243e-06
2	0	0	0	1	424.945	-0.225803	-0.225934	-0.0230959	2	-2.68777e-06	5.21814e-06
2	0	0	0	1	424.949	-0.245795	-0.245911	-0.0259233	2	-2.78614e-06	6.37483e-06
2	0	0	0	1	424.953	-0.265788	-0.265887	-0.0283442	2	-2.89497e-06	7.53638e-06
2	0	0	0	1	424.957	-0.28578	-0.285868	-0.0301253	2	-3.01218e-06	8.61184e-06
2	0	0	0	1	424.961	-0.305773	-0.305894	-0.0314112	2	-3.13537e-06	9.6085e-06
2	0	0	0	1	424.965	-0.325765	-0.325888	-0.0320873	2	-3.26264e-06	1.04569e-05
2	0	0	0	1	424.969	-0.345757	-0.345909	-0.0321869	2	-3.3912e-06	1.11337e-05
2	0	0	0	1	424.973	-0.36575	-0.365882	-0.0315419	2	-3.51896e-06	1.15406e-05
2	0	0	0	1	424.977	-0.385742	-0.38592	-0.0310377	2	-3.6441e-06	1.19781e-05
2	0	0	0	1	424.981	-0.405734	-0.405905	-0.0302688	2	-3.76659e-06	1.22862e-05
2	0	0	0	1	424.985	-0.425727	-0.425883	-0.0295591	2	-3.88614e-06	1.25887e-05
2	0	0	0	1	424.989	-0.445719	-0.445849	-0.0289057	2	-4.0028e-06	1.28876e-05
2	0	0	0	1	424.993	-0.465712	-0.465849	-0.0283887	2	-4.11725e-06	1.32248e-05
2	0	0	0	1	424.997	-0.485704	-0.485858	-0.0280644	2	-4.22996e-06	1.36353e-05
2	0	0	0	1	425.001	-0.505696	-0.505853	-0.0279494	2	-4.34206e-06	1.41383e-05
2	0	0	0	1	425.005	-0.525689	-0.525842	-0.0279303	2	-4.45382e-06	1.46869e-05
2	0	0	0	1	425.009	-0.545681	-0.545823	-0.0280212	2	-4.56554e-06	1.52946e-05
2	0	0	0	1	425.013	-0.565673	-0.565829	-0.028326	2	-4.67828e-06	1.60277e-05
2	0	0	0	1	425.017	-0.585666	-0.585811	-0.0288129	2	-4.79254e-06	1.68789e-05
2	0	0	0	1	425.02	-0.599161	-0.599302	-0.029254	2	-4.87087e-06	1.7532e-05
2	0	0	1	1	425.02	-0.60016	-0.600237	-0.0292685	2	-4.87672e-06	1.7568e-05