Folder: CV/TAP_Report/Data/MB_SHU (part 2)

File: 100 uM MB 10mM PB Second ITO_03_CV_C01_2.mpt
EC-Lab ASCII FILE
Nb header lines : 53

Cyclic Voltammetry

Run on channel : 1 (SN 0696)
User :
Electrode connection : standard
Ewe ctrl range : min = -10.00 V, max = 10.00 V
Ewe,I filtering : 50 kHz
Channel : Grounded
Acquisition started on : 05/17/2017 12:14:48
Saved on :
	File : 100 uM MB 10mM PB Second ITO_03_CV_C01.mpr
	Directory : \\userfs\st659\w2k\EC-Lab\Data\ITO Characterisation 17-5-17\
	Host : 144.32.136.43
Device : SP-300 (SN 0182)
Address : USB
EC-Lab for windows v10.44 (software)
Internet server v10.44 (firmware)
Command interpretor v10.44 (firmware)
Electrode material :
Initial state :
Electrolyte :
Comments :
Cable : standard
Electrode surface area : 0.001 cm²
Characteristic mass : 0.001 g
Equivalent Weight : 0.000 g/eq.
Density : 0.000 g/cm3
Ei (V)              0.000
vs.                 Eoc
dE/dt               100.000
dE/dt unit          mV/s
E1 (V)              0.100
vs.                 Ref
Step percent        50
N                   10
E range min (V)     -10.000
E range max (V)     10.000
I Range             Auto
I Range min         Unset
I Range max         Unset
I Range init        Unset
Bandwidth           8
E2 (V)              -0.600
vs.                 Ref
nc cycles           2
Reverse Scan        1
Ef (V)              0.000
vs.                 Eoc

mode	ox/red	error	control changes	counter inc.	time/s	control/V	Ewe/V	<I>/mA	cycle number	(Q-Qo)/C	P/W
2	1	0	1	1	349.892	-0.60016	-0.600363	-0.00566818	2	-2.37576e-05	3.40297e-06
2	1	0	0	1	350.011	-0.588329	-0.588558	-0.00464798	2	-2.43364e-05	2.7356e-06
2	1	0	0	1	350.144	-0.57501	-0.57525	-0.00419626	2	-2.49169e-05	2.41389e-06
2	1	0	1	1	350.277	-0.561668	-0.561892	-0.00384954	2	-2.54457e-05	2.16302e-06
2	1	0	1	1	350.411	-0.548347	-0.54856	-0.00356497	2	-2.5932e-05	1.9556e-06
2	1	0	0	1	350.544	-0.535016	-0.535222	-0.00332485	2	-2.63839e-05	1.77954e-06
2	1	0	0	1	350.677	-0.52169	-0.521919	-0.00311717	2	-2.68063e-05	1.62691e-06
2	1	0	0	1	350.81	-0.508369	-0.50861	-0.0029355	2	-2.72024e-05	1.49303e-06
2	1	0	1	1	350.944	-0.495027	-0.495229	-0.0027718	2	-2.7576e-05	1.37267e-06
2	1	0	1	1	351.077	-0.481705	-0.481931	-0.00262444	2	-2.79286e-05	1.2648e-06
2	1	0	0	1	351.21	-0.468371	-0.468574	-0.00248925	2	-2.82629e-05	1.1664e-06
2	1	0	0	1	351.344	-0.455049	-0.455242	-0.00236519	2	-2.85793e-05	1.07674e-06
2	1	0	0	1	351.477	-0.441727	-0.441927	-0.00225035	2	-2.88799e-05	9.94492e-07
2	1	0	1	1	351.61	-0.428386	-0.4286	-0.00214047	2	-2.91659e-05	9.17404e-07
2	1	0	1	1	351.743	-0.415071	-0.415305	-0.00203843	2	-2.94375e-05	8.46569e-07
2	1	0	0	1	351.877	-0.401729	-0.401958	-0.00193978	2	-2.9696e-05	7.7971e-07
2	1	0	0	1	352.01	-0.388408	-0.388643	-0.00184564	2	-2.99414e-05	7.17296e-07
2	1	0	0	1	352.143	-0.375086	-0.375289	-0.00175375	2	-3.01743e-05	6.58162e-07
2	1	0	1	1	352.277	-0.361749	-0.361978	-0.00166774	2	-3.03958e-05	6.03685e-07
2	1	0	1	1	352.41	-0.34843	-0.348644	-0.00158034	2	-3.06053e-05	5.50975e-07
2	1	0	0	1	352.543	-0.335088	-0.335274	-0.00149466	2	-3.08037e-05	5.01122e-07
2	1	0	0	1	352.676	-0.321766	-0.321955	-0.00140917	2	-3.09904e-05	4.53691e-07
2	1	0	1	1	352.81	-0.308438	-0.308637	-0.00132186	2	-3.11658e-05	4.07975e-07
2	1	0	1	1	352.943	-0.29511	-0.295282	-0.001228	2	-3.13291e-05	3.62605e-07
2	1	0	1	1	353.076	-0.281788	-0.281937	-0.00112774	2	-3.14795e-05	3.17951e-07
2	1	0	0	1	353.21	-0.268447	-0.268635	-0.00101125	2	-3.16157e-05	2.71656e-07
2	1	0	0	1	353.343	-0.255125	-0.255306	-0.000872717	2	-3.17347e-05	2.2281e-07
2	1	0	1	1	353.476	-0.24179	-0.24197	-0.000694336	2	-3.1833e-05	1.68008e-07
2	1	0	1	1	353.626	-0.226802	-0.226982	-0.000412989	2	-3.19111e-05	9.3741e-08
2	1	0	0	1	353.776	-0.211808	-0.211928	-2.5195e-05	2	-3.19439e-05	5.33951e-09
2	1	0	0	1	353.909	-0.198487	-0.198576	0.000421282	2	-3.19169e-05	8.36565e-08
2	1	0	1	1	354.059	-0.183489	-0.183622	0.00101623	2	-3.18059e-05	1.86603e-07
2	1	0	0	1	354.209	-0.168489	-0.168644	0.00157567	2	-3.16055e-05	2.65726e-07
2	1	0	0	1	354.342	-0.15517	-0.155304	0.0018787	2	-3.13659e-05	2.91769e-07
2	1	0	1	1	354.476	-0.141828	-0.141987	0.00190079	2	-3.11047e-05	2.69888e-07
2	1	0	1	1	354.609	-0.128507	-0.128641	0.00174842	2	-3.08539e-05	2.24918e-07
2	1	0	0	1	354.742	-0.115176	-0.115293	0.00153487	2	-3.06287e-05	1.7696e-07
2	1	0	0	1	354.876	-0.10185	-0.101966	0.00134208	2	-3.0431e-05	1.36847e-07
2	1	0	0	1	355.009	-0.0885287	-0.0886549	0.0011944	2	-3.02559e-05	1.05889e-07
2	1	0	1	1	355.142	-0.0751871	-0.0753363	0.00108494	2	-3.00978e-05	8.17356e-08
2	1	0	1	1	355.275	-0.0618655	-0.0620139	0.00100384	2	-2.99525e-05	6.22522e-08
2	1	0	0	1	355.409	-0.0485306	-0.0486624	0.000944283	2	-2.98162e-05	4.59511e-08
2	1	0	0	1	355.542	-0.035209	-0.0353364	0.000899234	2	-2.9687e-05	3.17757e-08
2	1	0	0	1	355.675	-0.0218874	-0.0220098	0.000866949	2	-2.95628e-05	1.90814e-08
2	1	0	1	1	355.809	-0.00854586	-0.00870222	0.000840802	2	-2.94424e-05	7.31685e-09
2	1	0	1	1	355.942	0.00476906	0.00464334	0.000823584	2	-2.9325e-05	3.82418e-09
2	1	0	0	1	356.075	0.0181106	0.0180059	0.000809202	2	-2.92095e-05	1.45704e-08
2	1	0	0	1	356.208	0.0314322	0.0313168	0.000800819	2	-2.90957e-05	2.50791e-08
2	1	0	0	1	356.342	0.0447538	0.0446454	0.000796282	2	-2.89828e-05	3.55503e-08
2	1	0	1	1	356.475	0.0580909	0.0580366	0.00079375	2	-2.88703e-05	4.60666e-08
2	1	0	1	1	356.608	0.0714103	0.0713079	0.000791603	2	-2.87582e-05	5.64476e-08
2	1	0	0	1	356.742	0.0847519	0.0846417	0.000793626	2	-2.86458e-05	6.71739e-08
2	1	0	0	1	356.875	0.0980735	0.0979848	0.00079775	2	-2.85333e-05	7.81674e-08
2	0	0	1	1	356.979	0.0914027	0.0912892	0.000433143	2	-2.84773e-05	3.95413e-08
2	0	0	0	1	357.145	0.0747424	0.074589	0.000171688	2	-2.84351e-05	1.2806e-08
2	0	0	0	1	357.278	0.0614274	0.0612857	3.51311e-05	2	-2.84233e-05	2.15303e-09
2	0	0	1	1	357.412	0.0480859	0.0479157	-8.42578e-05	2	-2.84286e-05	4.03728e-09
2	0	0	1	1	357.545	0.0347643	0.0345799	-0.000193608	2	-2.84491e-05	6.69496e-09
2	0	0	1	1	357.678	0.0214427	0.0212734	-0.00029169	2	-2.84833e-05	6.20524e-09
2	0	0	0	1	357.812	0.00810779	0.0079119	-0.000385791	2	-2.85303e-05	3.05234e-09
2	0	0	0	1	357.945	-0.00521379	-0.00544882	-0.000472657	2	-2.85894e-05	2.57542e-09
2	0	0	1	1	358.078	-0.0185554	-0.018785	-0.000556911	2	-2.86599e-05	1.04616e-08
2	0	0	1	1	358.211	-0.031877	-0.0321019	-0.000637292	2	-2.87411e-05	2.04583e-08
2	0	0	0	1	358.345	-0.045203	-0.0454636	-0.000715852	2	-2.8833e-05	3.25452e-08
2	0	0	0	1	358.478	-0.0585335	-0.0587686	-0.000791549	2	-2.89352e-05	4.65183e-08
2	0	0	0	1	358.611	-0.0718551	-0.0721012	-0.000869264	2	-2.90475e-05	6.2675e-08
2	0	0	1	1	358.745	-0.0851966	-0.0854332	-0.000948091	2	-2.91704e-05	8.09984e-08
2	0	0	0	1	358.911	-0.101857	-0.102008	-0.00102355	2	-2.93402e-05	1.0441e-07
2	0	0	0	1	359.044	-0.115174	-0.115303	-0.00113701	2	-2.94904e-05	1.31101e-07
2	0	0	1	1	359.178	-0.128513	-0.128677	-0.00128146	2	-2.96578e-05	1.64894e-07
2	0	0	1	1	359.311	-0.141835	-0.141999	-0.00148217	2	-2.98479e-05	2.10467e-07
2	0	0	1	1	359.444	-0.155157	-0.155318	-0.00176468	2	-3.00698e-05	2.74086e-07
2	0	0	0	1	359.578	-0.168496	-0.16868	-0.00216304	2	-3.03373e-05	3.64862e-07
2	0	0	0	1	359.711	-0.181813	-0.182005	-0.00268194	2	-3.06654e-05	4.88125e-07
2	0	0	1	1	359.844	-0.195155	-0.195326	-0.00326802	2	-3.10692e-05	6.38328e-07
2	0	0	1	1	359.977	-0.208476	-0.20865	-0.00378074	2	-3.15475e-05	7.8885e-07
2	0	0	0	1	360.111	-0.221807	-0.222007	-0.00406133	2	-3.20801e-05	9.01642e-07
2	0	0	0	1	360.244	-0.235133	-0.235322	-0.0040777	2	-3.26314e-05	9.59571e-07
2	0	0	0	1	360.377	-0.248454	-0.248647	-0.00395093	2	-3.31735e-05	9.82387e-07
2	0	0	1	1	360.511	-0.261796	-0.26196	-0.00378767	2	-3.36961e-05	9.92219e-07
2	0	0	1	1	360.644	-0.275118	-0.275299	-0.00363373	2	-3.41965e-05	1.00036e-06
2	0	0	0	1	360.777	-0.288453	-0.288623	-0.0035115	2	-3.46791e-05	1.0135e-06
2	0	0	0	1	360.91	-0.301774	-0.301965	-0.00341949	2	-3.51469e-05	1.03257e-06
2	0	0	0	1	361.044	-0.315096	-0.315295	-0.00335828	2	-3.56046e-05	1.05885e-06
2	0	0	1	1	361.177	-0.328437	-0.328622	-0.00331962	2	-3.60563e-05	1.0909e-06
2	0	0	1	1	361.31	-0.341752	-0.34199	-0.00330187	2	-3.65037e-05	1.12921e-06
2	0	0	0	1	361.444	-0.355094	-0.355327	-0.00329751	2	-3.69502e-05	1.17169e-06
2	0	0	0	1	361.577	-0.368415	-0.368624	-0.00330453	2	-3.73964e-05	1.21813e-06
2	0	0	0	1	361.71	-0.381737	-0.381955	-0.00332564	2	-3.78445e-05	1.27024e-06
2	0	0	1	1	361.843	-0.395074	-0.395302	-0.00335068	2	-3.82963e-05	1.32453e-06
2	0	0	1	1	361.977	-0.408393	-0.408608	-0.00338198	2	-3.87513e-05	1.38191e-06
2	0	0	0	1	362.11	-0.421735	-0.421966	-0.00342394	2	-3.92119e-05	1.44479e-06
2	0	0	0	1	362.243	-0.435057	-0.435254	-0.00346739	2	-3.96774e-05	1.50919e-06
2	0	0	1	1	362.376	-0.448385	-0.448581	-0.0035212	2	-4.01499e-05	1.57954e-06
2	0	0	1	1	362.51	-0.461713	-0.461927	-0.00358279	2	-4.06299e-05	1.65499e-06
2	0	0	1	1	362.643	-0.475035	-0.475253	-0.00365034	2	-4.11183e-05	1.73483e-06
2	0	0	0	1	362.776	-0.488376	-0.48861	-0.00373124	2	-4.16174e-05	1.82312e-06
2	0	0	0	1	362.91	-0.501698	-0.501935	-0.00382451	2	-4.21272e-05	1.91965e-06
2	0	0	1	1	363.043	-0.515033	-0.515263	-0.00393114	2	-4.2651e-05	2.02557e-06
2	0	0	1	1	363.176	-0.528354	-0.528576	-0.00405633	2	-4.31895e-05	2.14408e-06
2	0	0	1	1	363.309	-0.541676	-0.541883	-0.00419903	2	-4.37457e-05	2.27538e-06
2	0	0	0	1	363.443	-0.555018	-0.555263	-0.0043688	2	-4.43236e-05	2.42583e-06
2	0	0	0	1	363.576	-0.568332	-0.568562	-0.00456352	2	-4.49249e-05	2.59465e-06
2	0	0	1	1	363.709	-0.581674	-0.581869	-0.00478542	2	-4.55548e-05	2.78449e-06
2	0	0	1	1	363.843	-0.594996	-0.595222	-0.00503513	2	-4.62155e-05	2.99702e-06
2	0	0	0	1	363.891	-0.599827	-0.600085	-0.00512832	2	-4.64638e-05	3.07743e-06

File: 100 uM MB 10mM PB Second ITO_04_CV_C01_2.mpt
EC-Lab ASCII FILE
Nb header lines : 53

Cyclic Voltammetry

Run on channel : 1 (SN 0696)
User :
Electrode connection : standard
Ewe ctrl range : min = -10.00 V, max = 10.00 V
Ewe,I filtering : 50 kHz
Channel : Grounded
Acquisition started on : 05/17/2017 12:14:48
Saved on :
	File : 100 uM MB 10mM PB Second ITO_04_CV_C01.mpr
	Directory : \\userfs\st659\w2k\EC-Lab\Data\ITO Characterisation 17-5-17\
	Host : 144.32.136.43
Device : SP-300 (SN 0182)
Address : USB
EC-Lab for windows v10.44 (software)
Internet server v10.44 (firmware)
Command interpretor v10.44 (firmware)
Electrode material :
Initial state :
Electrolyte :
Comments :
Cable : standard
Electrode surface area : 0.001 cm²
Characteristic mass : 0.001 g
Equivalent Weight : 0.000 g/eq.
Density : 0.000 g/cm3
Ei (V)              0.000
vs.                 Eoc
dE/dt               250.000
dE/dt unit          mV/s
E1 (V)              0.100
vs.                 Ref
Step percent        50
N                   10
E range min (V)     -10.000
E range max (V)     10.000
I Range             Auto
I Range min         Unset
I Range max         Unset
I Range init        Unset
Bandwidth           8
E2 (V)              -0.600
vs.                 Ref
nc cycles           2
Reverse Scan        1
Ef (V)              0.000
vs.                 Eoc

mode	ox/red	error	control changes	counter inc.	time/s	control/V	Ewe/V	<I>/mA	cycle number	(Q-Qo)/C	P/W
2	1	0	1	1	392.339	-0.60016	-0.600401	-0.00713239	2	-1.27869e-05	4.2823e-06
2	1	0	1	1	392.386	-0.588348	-0.588561	-0.00538878	2	-1.30594e-05	3.17163e-06
2	1	0	0	1	392.439	-0.574987	-0.575214	-0.0047964	2	-1.33273e-05	2.75896e-06
2	1	0	0	1	392.492	-0.561692	-0.561892	-0.00436008	2	-1.35674e-05	2.44989e-06
2	1	0	1	1	392.546	-0.548347	-0.54855	-0.00401267	2	-1.37877e-05	2.20115e-06
2	1	0	0	1	392.599	-0.535013	-0.535209	-0.00372259	2	-1.39906e-05	1.99236e-06
2	1	0	0	1	392.652	-0.52169	-0.521898	-0.00347285	2	-1.41793e-05	1.81247e-06
2	1	0	1	1	392.706	-0.508345	-0.508564	-0.00325278	2	-1.43559e-05	1.65425e-06
2	1	0	1	1	392.759	-0.49505	-0.495246	-0.0030593	2	-1.45208e-05	1.5151e-06
2	1	0	0	1	392.812	-0.481689	-0.481915	-0.00288278	2	-1.46764e-05	1.38926e-06
2	1	0	0	1	392.866	-0.468394	-0.468614	-0.00272142	2	-1.48225e-05	1.27529e-06
2	1	0	1	1	392.919	-0.455049	-0.455219	-0.00256944	2	-1.49608e-05	1.16966e-06
2	1	0	1	1	392.972	-0.441737	-0.441934	-0.00243011	2	-1.50908e-05	1.07395e-06
2	1	0	0	1	393.026	-0.428392	-0.428596	-0.00229876	2	-1.5214e-05	9.85238e-07
2	1	0	1	1	393.079	-0.415048	-0.415271	-0.00216623	2	-1.53304e-05	8.99573e-07
2	1	0	1	1	393.132	-0.401736	-0.401958	-0.00204684	2	-1.54395e-05	8.22744e-07
2	1	0	0	1	393.186	-0.388391	-0.388612	-0.001928	2	-1.55426e-05	7.49243e-07
2	1	0	0	1	393.239	-0.375096	-0.375301	-0.00181036	2	-1.56391e-05	6.79429e-07
2	1	0	1	1	393.292	-0.361746	-0.361933	-0.00169555	2	-1.57297e-05	6.13676e-07
2	1	0	1	1	393.345	-0.34844	-0.348649	-0.00158495	2	-1.58141e-05	5.52593e-07
2	1	0	0	1	393.399	-0.335095	-0.335269	-0.00146966	2	-1.58927e-05	4.92733e-07
2	1	0	1	1	393.452	-0.32175	-0.321913	-0.00135255	2	-1.59651e-05	4.35404e-07
2	1	0	1	1	393.505	-0.308438	-0.308614	-0.00123133	2	-1.6031e-05	3.80006e-07
2	1	0	0	1	393.559	-0.295093	-0.29524	-0.00109461	2	-1.60903e-05	3.23172e-07
2	1	0	0	1	393.612	-0.281798	-0.281936	-0.000948201	2	-1.61417e-05	2.67332e-07
2	1	0	1	1	393.665	-0.268437	-0.268585	-0.000767701	2	-1.61848e-05	2.06193e-07
2	1	0	1	1	393.719	-0.255142	-0.255318	-0.000548562	2	-1.6217e-05	1.40057e-07
2	1	0	0	1	393.772	-0.241797	-0.241973	-0.000265908	2	-1.62362e-05	6.43427e-08
2	1	0	1	1	393.825	-0.228463	-0.228636	9.7048e-05	2	-1.62383e-05	2.21886e-08
2	1	0	1	1	393.879	-0.21514	-0.215306	0.000559091	2	-1.62183e-05	1.20376e-07
2	1	0	0	1	393.932	-0.201796	-0.201954	0.00114083	2	-1.61705e-05	2.30395e-07
2	1	0	0	1	393.985	-0.188501	-0.188675	0.00182199	2	-1.60889e-05	3.43763e-07
2	1	0	1	1	394.039	-0.175139	-0.175286	0.00256497	2	-1.59685e-05	4.49603e-07
2	1	0	1	1	394.092	-0.161844	-0.162002	0.0032041	2	-1.58112e-05	5.1907e-07
2	1	0	0	1	394.145	-0.148499	-0.148649	0.00360748	2	-1.56253e-05	5.36249e-07
2	1	0	0	1	394.198	-0.135188	-0.135331	0.00368767	2	-1.5427e-05	4.99058e-07
2	1	0	1	1	394.252	-0.121843	-0.12197	0.00350419	2	-1.52313e-05	4.27405e-07
2	1	0	0	1	394.305	-0.108498	-0.108621	0.00319479	2	-1.50494e-05	3.47021e-07
2	1	0	0	1	394.358	-0.0951862	-0.0953057	0.00287741	2	-1.48854e-05	2.74233e-07
2	1	0	1	1	394.412	-0.0818412	-0.0819893	0.00260352	2	-1.47366e-05	2.13461e-07
2	1	0	1	1	394.465	-0.0685463	-0.0686928	0.00239499	2	-1.4601e-05	1.64519e-07
2	1	0	0	1	394.518	-0.0551959	-0.0553441	0.00223153	2	-1.44749e-05	1.23502e-07
2	1	0	0	1	394.572	-0.0418898	-0.042038	0.00211204	2	-1.43566e-05	8.87861e-08
2	1	0	1	1	394.625	-0.0285449	-0.0286771	0.00201654	2	-1.42437e-05	5.78285e-08
2	1	0	0	1	394.678	-0.0152	-0.0153412	0.00194439	2	-1.41352e-05	2.98294e-08
2	1	0	0	1	394.732	-0.0018884	-0.00204119	0.00188724	2	-1.40304e-05	3.85221e-09
2	1	0	1	1	394.785	0.0114565	0.011344	0.00184307	2	-1.39279e-05	2.09078e-08
2	1	0	1	1	394.838	0.0247514	0.0246565	0.00181227	2	-1.38278e-05	4.46842e-08
2	1	0	0	1	394.892	0.038113	0.0380196	0.00179153	2	-1.37288e-05	6.81135e-08
2	1	0	0	1	394.945	0.0514079	0.0512987	0.00177089	2	-1.36312e-05	9.08442e-08
2	1	0	1	1	394.998	0.0647528	0.0646686	0.0017587	2	-1.35339e-05	1.13733e-07
2	1	0	1	1	395.051	0.0780644	0.0779908	0.00175952	2	-1.34375e-05	1.37227e-07
2	1	0	0	1	395.105	0.0914093	0.0913046	0.00175619	2	-1.33408e-05	1.60348e-07
2	0	0	0	1	395.146	0.0980901	0.0979553	0.00121111	2	-1.32699e-05	1.18635e-07
2	0	0	1	1	395.2	0.0847452	0.0845972	0.000761023	2	-1.32228e-05	6.43804e-08
2	0	0	1	1	395.253	0.0714336	0.0713146	0.000528877	2	-1.31917e-05	3.77166e-08
2	0	0	0	1	395.306	0.0580887	0.0579707	0.000345774	2	-1.31714e-05	2.00448e-08
2	0	0	1	1	395.36	0.0447438	0.0446092	0.000183244	2	-1.31603e-05	8.17438e-09
2	0	0	1	1	395.413	0.0314322	0.0312819	3.94399e-05	2	-1.31574e-05	1.23375e-09
2	0	0	1	1	395.497	0.0104402	0.0101989	-0.000214508	2	-1.31682e-05	2.18775e-09
2	0	0	0	1	395.55	-0.00290467	-0.00317869	-0.000334353	2	-1.31832e-05	1.06281e-09
2	0	0	0	1	395.604	-0.0162163	-0.0165159	-0.000449926	2	-1.32045e-05	7.43092e-09
2	0	0	1	1	395.657	-0.0295612	-0.0298359	-0.000565531	2	-1.32319e-05	1.68731e-08
2	0	0	1	1	395.71	-0.0428561	-0.0431307	-0.00067733	2	-1.32652e-05	2.92137e-08
2	0	0	0	1	395.764	-0.0562177	-0.0565181	-0.000791721	2	-1.33047e-05	4.47466e-08
2	0	0	0	1	395.817	-0.0695126	-0.0697908	-0.000901926	2	-1.335e-05	6.29462e-08
2	0	0	0	1	395.901	-0.0905046	-0.0906727	-0.00105381	2	-1.34337e-05	9.55518e-08
2	0	0	1	1	395.954	-0.103866	-0.104022	-0.00120908	2	-1.34971e-05	1.2577e-07
2	0	0	1	1	396.007	-0.117161	-0.117326	-0.00140485	2	-1.35693e-05	1.64825e-07
2	0	0	0	1	396.061	-0.130506	-0.130712	-0.0016594	2	-1.36537e-05	2.16905e-07
2	0	0	0	1	396.114	-0.143818	-0.144009	-0.0019948	2	-1.37534e-05	2.87268e-07
2	0	0	1	1	396.167	-0.157163	-0.15733	-0.00243836	2	-1.38743e-05	3.83627e-07
2	0	0	0	1	396.221	-0.170507	-0.170712	-0.00300734	2	-1.40221e-05	5.13388e-07
2	0	0	0	1	396.274	-0.183802	-0.184006	-0.00369068	2	-1.42027e-05	6.79108e-07
2	0	0	1	1	396.327	-0.197164	-0.197361	-0.00443965	2	-1.44228e-05	8.76216e-07
2	0	0	1	1	396.381	-0.210459	-0.210652	-0.00516807	2	-1.46819e-05	1.08866e-06
2	0	0	0	1	396.434	-0.223804	-0.224035	-0.00571544	2	-1.49765e-05	1.28046e-06
2	0	0	0	1	396.487	-0.237115	-0.237337	-0.00596608	2	-1.52914e-05	1.41597e-06
2	0	0	1	1	396.541	-0.25046	-0.250679	-0.00595943	2	-1.56137e-05	1.4939e-06
2	0	0	0	1	396.594	-0.263805	-0.263992	-0.00577598	2	-1.59304e-05	1.52481e-06
2	0	0	0	1	396.647	-0.277117	-0.277309	-0.00552719	2	-1.62341e-05	1.53274e-06
2	0	0	1	1	396.701	-0.290462	-0.290652	-0.00527401	2	-1.65253e-05	1.5329e-06
2	0	0	1	1	396.754	-0.303757	-0.303964	-0.00506434	2	-1.68031e-05	1.53938e-06
2	0	0	0	1	396.807	-0.317113	-0.317359	-0.00489816	2	-1.70719e-05	1.55448e-06
2	0	0	0	1	396.86	-0.330413	-0.330614	-0.00477114	2	-1.73316e-05	1.57741e-06
2	0	0	1	1	396.914	-0.343758	-0.344016	-0.00468452	2	-1.75868e-05	1.61155e-06
2	0	0	0	1	396.967	-0.357103	-0.357346	-0.00462521	2	-1.78381e-05	1.6528e-06
2	0	0	0	1	397.02	-0.370415	-0.370634	-0.00459384	2	-1.8086e-05	1.70263e-06
2	0	0	1	1	397.074	-0.383759	-0.384007	-0.00458526	2	-1.83339e-05	1.76077e-06
2	0	0	1	1	397.127	-0.397054	-0.397299	-0.00458529	2	-1.85807e-05	1.82173e-06
2	0	0	0	1	397.18	-0.410416	-0.410643	-0.00460819	2	-1.8829e-05	1.89232e-06
2	0	0	0	1	397.234	-0.423711	-0.423962	-0.00463633	2	-1.90776e-05	1.96563e-06
2	0	0	1	1	397.287	-0.437056	-0.437286	-0.00467441	2	-1.9329e-05	2.04405e-06
2	0	0	1	1	397.34	-0.450367	-0.450569	-0.00472409	2	-1.95818e-05	2.12853e-06
2	0	0	0	1	397.394	-0.463712	-0.463933	-0.00477891	2	-1.98385e-05	2.21709e-06
2	0	0	1	1	397.447	-0.477057	-0.477288	-0.00485382	2	-2.00987e-05	2.31667e-06
2	0	0	1	1	397.5	-0.490352	-0.490583	-0.00493483	2	-2.0362e-05	2.42094e-06
2	0	0	0	1	397.554	-0.503714	-0.503945	-0.00503332	2	-2.06309e-05	2.53652e-06
2	0	0	0	1	397.607	-0.517009	-0.517237	-0.00513938	2	-2.09044e-05	2.65828e-06
2	0	0	1	1	397.66	-0.530354	-0.53059	-0.00527492	2	-2.11854e-05	2.79882e-06
2	0	0	1	1	397.713	-0.543665	-0.543901	-0.00542862	2	-2.14729e-05	2.95263e-06
2	0	0	0	1	397.767	-0.55701	-0.557249	-0.00561759	2	-2.17705e-05	3.13039e-06
2	0	0	1	1	397.82	-0.570355	-0.570606	-0.00582371	2	-2.20788e-05	3.32305e-06
2	0	0	1	1	397.873	-0.583667	-0.583901	-0.00607963	2	-2.23981e-05	3.5499e-06
2	0	0	0	1	397.927	-0.597011	-0.597241	-0.00636369	2	-2.27331e-05	3.80065e-06
2	0	0	0	1	397.938	-0.599827	-0.600035	-0.00643145	2	-2.28052e-05	3.8591e-06