Folder: CV/TAP_Report/Data/MB_Suscept

File: 6_bw_anti_1_C01_2.mpt
EC-Lab ASCII FILE
Nb header lines : 56

Cyclic Voltammetry

Run on channel : 1 (SN 0696)
User :
Electrode connection : standard
Ewe ctrl range : min = -2.50 V, max = 2.50 V
Ewe,I filtering : 50 kHz
Safety Limits :
	Do not start on E overload
Channel : Floating
Acquisition started on : 09/12/2016 16:05:34
Saved on :
	File : 6_bw_anti_1_C01.mpr
	Directory : \\userfs\st659\w2k\EC-Lab\Data\Meth_Blue 12-09-16\
	Host : 144.32.136.43
Device : SP-300 (SN 0182)
Address : USB
EC-Lab for windows v10.44 (software)
Internet server v10.44 (firmware)
Command interpretor v10.44 (firmware)
Electrode material :
Initial state :
Electrolyte :
Comments :
Cable : standard
Reference electrode : SCE Saturated Calomel Electrode (0.241 V)
Electrode surface area : 0.001 cm²
Characteristic mass : 0.001 g
Equivalent Weight : 0.000 g/eq.
Density : 0.000 g/cm3
Ei (V)              0.000
vs.                 Eoc
dE/dt               100.000
dE/dt unit          mV/s
E1 (V)              0.100
vs.                 Ref
Step percent        50
N                   10
E range min (V)     -2.500
E range max (V)     2.500
I Range             Auto
I Range min         Unset
I Range max         Unset
I Range init        Unset
Bandwidth           8
E2 (V)              -0.400
vs.                 Ref
nc cycles           2
Reverse Scan        1
Ef (V)              0.000
vs.                 Eoc

mode	ox/red	error	control changes	counter inc.	time/s	control/V	Ewe/V	<I>/mA	cycle number	(Q-Qo)/C	P/W
2	1	0	0	1	9.9648	0.0243352	0.0247898	0.00490023	2	-5.19991e-05	1.21476e-07
2	1	0	1	1	10.0403	0.0318821	0.0323214	0.00490503	2	-5.16292e-05	1.58537e-07
2	1	0	1	1	10.1203	0.0398788	0.0403145	0.00496708	2	-5.12338e-05	2.00245e-07
2	1	0	1	1	10.2003	0.0478756	0.0483023	0.00500033	2	-5.08345e-05	2.41527e-07
2	1	0	1	1	10.2803	0.0558723	0.0563047	0.00506761	2	-5.0431e-05	2.8533e-07
2	1	0	1	1	10.3603	0.063869	0.0642967	0.00511378	2	-5.00229e-05	3.28799e-07
2	1	0	1	1	10.4403	0.0718657	0.0722953	0.00518497	2	-4.96096e-05	3.74848e-07
2	1	0	0	1	10.5201	0.0798624	0.0802886	0.00526056	2	-4.91914e-05	4.22363e-07
2	1	0	0	1	10.6001	0.0878592	0.0882916	0.00534125	2	-4.87662e-05	4.71587e-07
2	1	0	0	1	10.6801	0.0958559	0.0962845	0.00544206	2	-4.8334e-05	5.23986e-07
2	0	0	1	1	10.7475	0.0974552	0.0977973	0.00201968	2	-4.80394e-05	1.9752e-07
2	0	0	1	1	10.8275	0.0894585	0.0897974	0.000753605	2	-4.79381e-05	6.76718e-08
2	0	0	1	1	10.9075	0.0814618	0.0817747	0.000107231	2	-4.79065e-05	8.76876e-09
2	0	0	1	1	10.9875	0.0734651	0.0737958	-0.000323404	2	-4.7916e-05	2.38659e-08
2	0	0	0	1	11.0673	0.0654683	0.0658014	-0.000643626	2	-4.79558e-05	4.23515e-08
2	0	0	0	1	11.1473	0.0574716	0.0578063	-0.000906009	2	-4.80184e-05	5.2373e-08
2	0	0	0	1	11.2273	0.0494749	0.0498043	-0.00111342	2	-4.80996e-05	5.54532e-08
2	0	0	0	1	11.3073	0.0414782	0.041821	-0.00128303	2	-4.81963e-05	5.36577e-08
2	0	0	0	1	11.3873	0.0334815	0.0337965	-0.00145329	2	-4.83066e-05	4.9116e-08
2	0	0	0	1	11.4673	0.0254848	0.025818	-0.00157795	2	-4.84287e-05	4.07395e-08
2	0	0	1	1	11.5471	0.017488	0.0178203	-0.00171535	2	-4.85613e-05	3.05681e-08
2	0	0	1	1	11.6271	0.00949133	0.00980816	-0.00182197	2	-4.87039e-05	1.78701e-08
2	0	0	1	1	11.7071	0.00149461	0.00181169	-0.00195037	2	-4.88555e-05	3.53347e-09
2	0	0	1	1	11.7871	-0.00650211	-0.00619813	-0.00203632	2	-4.90158e-05	1.26214e-08
2	0	0	1	1	11.8671	-0.0144988	-0.0141929	-0.0021487	2	-4.91846e-05	3.04962e-08
2	0	0	1	1	11.9471	-0.0224955	-0.0221962	-0.00225204	2	-4.93613e-05	4.99867e-08
2	0	0	0	1	12.0269	-0.0304923	-0.0301846	-0.00235404	2	-4.95458e-05	7.10557e-08
2	0	0	0	1	12.1069	-0.038489	-0.0381897	-0.00245052	2	-4.97384e-05	9.35845e-08
2	0	0	0	1	12.1869	-0.0464857	-0.0461546	-0.00255103	2	-4.99388e-05	1.17742e-07
2	0	0	0	1	12.2669	-0.0544824	-0.0541581	-0.00264128	2	-5.0147e-05	1.43047e-07
2	0	0	0	1	12.3469	-0.0624791	-0.0621558	-0.0027614	2	-5.03631e-05	1.71637e-07
2	0	0	0	1	12.4269	-0.0704759	-0.070161	-0.00284207	2	-5.0587e-05	1.99403e-07
2	0	0	1	1	12.5067	-0.0784726	-0.0781473	-0.00293867	2	-5.08189e-05	2.29649e-07
2	0	0	1	1	12.5867	-0.0864693	-0.0861482	-0.00303954	2	-5.10592e-05	2.6185e-07
2	0	0	1	1	12.6667	-0.094466	-0.0941489	-0.00317215	2	-5.13085e-05	2.98654e-07
2	0	0	1	1	12.7467	-0.102463	-0.102139	-0.00328436	2	-5.15668e-05	3.35461e-07
2	0	0	1	1	12.8267	-0.110459	-0.110134	-0.00341827	2	-5.18353e-05	3.76469e-07
2	0	0	1	1	12.9067	-0.118456	-0.11813	-0.00355934	2	-5.21154e-05	4.20464e-07
2	0	0	0	1	12.9865	-0.126453	-0.126125	-0.00375328	2	-5.24085e-05	4.73383e-07
2	0	0	0	1	13.0665	-0.13445	-0.134108	-0.00398091	2	-5.27183e-05	5.33869e-07
2	0	0	0	1	13.1465	-0.142446	-0.142145	-0.00429178	2	-5.30492e-05	6.10056e-07
2	0	0	0	1	13.2265	-0.150443	-0.150138	-0.0046905	2	-5.34075e-05	7.04225e-07
2	0	0	0	1	13.3065	-0.15844	-0.158143	-0.00520162	2	-5.38023e-05	8.22601e-07
2	0	0	0	1	13.3865	-0.166437	-0.166154	-0.00590216	2	-5.42456e-05	9.80668e-07
2	0	0	1	1	13.4663	-0.174433	-0.174152	-0.00679563	2	-5.47518e-05	1.18347e-06
2	0	0	1	1	13.5463	-0.18243	-0.182142	-0.00790469	2	-5.53392e-05	1.43978e-06
2	0	0	1	1	13.6263	-0.190427	-0.190137	-0.00918832	2	-5.60222e-05	1.74704e-06
2	0	0	0	1	13.7373	-0.201522	-0.201196	-0.0107598	2	-5.71384e-05	2.16482e-06
2	0	0	0	1	13.8173	-0.209519	-0.209218	-0.012038	2	-5.80738e-05	2.51858e-06
2	0	0	0	1	13.8973	-0.217516	-0.217219	-0.0131853	2	-5.91062e-05	2.8641e-06
2	0	0	1	1	13.9771	-0.225512	-0.225222	-0.014124	2	-6.02183e-05	3.18104e-06
2	0	0	1	1	14.0571	-0.233509	-0.233216	-0.0147738	2	-6.13971e-05	3.44549e-06
2	0	0	1	1	14.1371	-0.241506	-0.2412	-0.0152628	2	-6.26234e-05	3.68139e-06
2	0	0	1	1	14.2171	-0.249502	-0.249196	-0.0156593	2	-6.38836e-05	3.90224e-06
2	0	0	1	1	14.2971	-0.257499	-0.257197	-0.0158901	2	-6.51669e-05	4.08687e-06
2	0	0	1	1	14.3771	-0.265496	-0.265174	-0.0160853	2	-6.64661e-05	4.26541e-06
2	0	0	0	1	14.4569	-0.273493	-0.273192	-0.0162219	2	-6.77756e-05	4.43169e-06
2	0	0	0	1	14.5369	-0.281489	-0.281188	-0.0163477	2	-6.90993e-05	4.59677e-06
2	0	0	0	1	14.6169	-0.289486	-0.289176	-0.0165207	2	-7.04354e-05	4.77741e-06
2	0	0	0	1	14.6969	-0.297483	-0.297185	-0.0167237	2	-7.17868e-05	4.97004e-06
2	0	0	0	1	14.7769	-0.305479	-0.305173	-0.0169525	2	-7.3157e-05	5.17346e-06
2	0	0	0	1	14.8569	-0.313476	-0.313172	-0.0173295	2	-7.45502e-05	5.4271e-06
2	0	0	1	1	14.9367	-0.321473	-0.321172	-0.0177253	2	-7.59688e-05	5.69288e-06
2	0	0	1	1	15.0167	-0.32947	-0.329175	-0.0181609	2	-7.74238e-05	5.97811e-06
2	0	0	1	1	15.0967	-0.337466	-0.337151	-0.0187002	2	-7.89174e-05	6.3048e-06
2	0	0	1	1	15.1767	-0.345463	-0.345156	-0.0192517	2	-8.04555e-05	6.64484e-06
2	0	0	1	1	15.2567	-0.35346	-0.353149	-0.0199323	2	-8.20438e-05	7.03907e-06
2	0	0	1	1	15.3367	-0.361457	-0.361155	-0.0206615	2	-8.36879e-05	7.46199e-06
2	0	0	0	1	15.4165	-0.369453	-0.369147	-0.0214759	2	-8.53893e-05	7.92777e-06
2	0	0	0	1	15.4965	-0.37745	-0.377159	-0.0223532	2	-8.71618e-05	8.43069e-06
2	0	0	0	1	15.5765	-0.385447	-0.385146	-0.0232798	2	-8.90063e-05	8.96615e-06
2	0	0	0	1	15.6565	-0.393443	-0.393141	-0.024228	2	-9.09277e-05	9.52501e-06
2	1	0	1	0	15.7279	-0.399441	-0.399085	-0.0227376	2	-9.26959e-05	9.07424e-06
2	1	0	1	0	15.8079	-0.391444	-0.391078	-0.0192641	2	-9.43256e-05	7.53377e-06
2	1	0	1	0	15.8879	-0.383447	-0.383103	-0.0172711	2	-9.57618e-05	6.61662e-06
2	1	0	1	0	15.9679	-0.375451	-0.375105	-0.0156376	2	-9.7054e-05	5.86573e-06
[...]
2	1	0	0	0	16.2877	-0.343464	-0.343087	-0.0105489	2	-0.0001011	3.61921e-06
2	1	0	0	0	16.3677	-0.335467	-0.335101	-0.00953922	2	-0.000101882	3.1966e-06
2	1	0	0	0	16.4477	-0.32747	-0.327129	-0.00859809	2	-0.000102587	2.81268e-06
2	1	0	0	0	16.5277	-0.319474	-0.319127	-0.0077716	2	-0.00010322	2.48012e-06
2	1	0	1	0	16.6075	-0.311477	-0.311115	-0.00696822	2	-0.000103785	2.16792e-06
2	1	0	1	0	16.6875	-0.30348	-0.303096	-0.00620123	2	-0.000104288	1.87957e-06
2	1	0	1	0	16.7675	-0.295484	-0.295108	-0.00545395	2	-0.000104731	1.60951e-06
2	1	0	1	0	16.8775	-0.284488	-0.284112	-0.00426711	2	-0.000105263	1.21234e-06
2	1	0	1	0	16.9575	-0.276491	-0.276121	-0.00356874	2	-0.000105575	9.85405e-07
2	1	0	1	0	17.0374	-0.268492	-0.268114	-0.00284015	2	-0.000105832	7.61486e-07
2	1	0	0	0	17.1173	-0.260498	-0.260123	-0.00212595	2	-0.000106031	5.53008e-07
2	1	0	0	0	17.1973	-0.252501	-0.252109	-0.00133792	2	-0.000106169	3.37301e-07
2	1	0	0	0	17.2773	-0.244505	-0.244109	-0.000451248	2	-0.000106241	1.10154e-07
2	1	0	0	0	17.3573	-0.236508	-0.236111	0.00053952	2	-0.000106237	1.27386e-07
2	1	0	0	0	17.4373	-0.228511	-0.228129	0.00166466	2	-0.000106148	3.79759e-07
2	1	0	0	0	17.5173	-0.220514	-0.22013	0.00291227	2	-0.000105965	6.41077e-07
2	1	0	1	0	17.5971	-0.212518	-0.212124	0.00423684	2	-0.000105678	8.98734e-07
2	1	0	1	0	17.6771	-0.204521	-0.204129	0.00549499	2	-0.000105288	1.12169e-06
2	1	0	1	0	17.7571	-0.196524	-0.196109	0.00659675	2	-0.000104802	1.29368e-06
2	1	0	1	0	17.8371	-0.188527	-0.188095	0.00742956	2	-0.000104238	1.39747e-06
2	1	0	1	0	17.9171	-0.180531	-0.180098	0.00791514	2	-0.000103622	1.4255e-06
2	1	0	1	0	17.9971	-0.172534	-0.172108	0.00804039	2	-0.000102982	1.38382e-06
2	1	0	0	0	18.0769	-0.164537	-0.164113	0.00792274	2	-0.000102343	1.30022e-06
2	1	0	0	0	18.1569	-0.156541	-0.156084	0.00760976	2	-0.000101721	1.18776e-06
2	1	0	0	0	18.2369	-0.148544	-0.148105	0.00722454	2	-0.000101128	1.06999e-06
2	1	0	0	0	18.3169	-0.140547	-0.140097	0.00680549	2	-0.000100567	9.53426e-07
2	1	0	0	0	18.3969	-0.13255	-0.132109	0.00642881	2	-0.000100037	8.49302e-07
2	1	0	0	0	18.4769	-0.124554	-0.124134	0.00608596	2	-9.95366e-05	7.55473e-07
2	1	0	1	0	18.5567	-0.116557	-0.116118	0.00581521	2	-9.90614e-05	6.75252e-07
2	1	0	1	0	18.6367	-0.10856	-0.10811	0.00557291	2	-9.8606e-05	6.02488e-07
2	1	0	1	0	18.7167	-0.100564	-0.100128	0.00537718	2	-9.8168e-05	5.38405e-07
2	1	0	1	0	18.7967	-0.0925668	-0.0921304	0.0052215	2	-9.77438e-05	4.81059e-07
2	1	0	1	0	18.8767	-0.0845701	-0.0841269	0.00510774	2	-9.73305e-05	4.29698e-07
2	1	0	1	0	18.9567	-0.0765734	-0.0761357	0.00499909	2	-9.69262e-05	3.80609e-07
2	1	0	0	0	19.0365	-0.0685766	-0.0681486	0.00493385	2	-9.65289e-05	3.36235e-07
2	1	0	0	0	19.1165	-0.0605799	-0.060153	0.00489802	2	-9.61357e-05	2.94631e-07
2	1	0	0	0	19.1965	-0.0525832	-0.0521493	0.00484192	2	-9.57458e-05	2.52502e-07
2	1	0	0	0	19.2765	-0.0445865	-0.0441492	0.00483578	2	-9.53582e-05	2.13496e-07
2	1	0	0	0	19.3565	-0.0365898	-0.0361568	0.00482996	2	-9.49715e-05	1.74636e-07
2	1	0	0	0	19.4365	-0.028593	-0.0281855	0.00482404	2	-9.45851e-05	1.35968e-07
2	1	0	1	0	19.5163	-0.0205963	-0.0201799	0.00483037	2	-9.41988e-05	9.74765e-08
2	1	0	1	0	19.5963	-0.0125996	-0.0121991	0.0048592	2	-9.38105e-05	5.92781e-08
2	1	0	1	0	19.6763	-0.00460289	-0.00418826	0.00488027	2	-9.34202e-05	2.04398e-08
2	1	0	1	0	19.7563	0.00339383	0.00381372	0.00493338	2	-9.30276e-05	1.88146e-08
2	1	0	1	0	19.8363	0.0113905	0.0118057	0.00494859	2	-9.26323e-05	5.84218e-08
2	1	0	1	0	19.9163	0.0193873	0.019838	0.00499985	2	-9.2234e-05	9.91872e-08
2	1	0	1	0	19.9632	0.0240925	0.0245254	0.00508797	2	-9.19988e-05	1.24785e-07

File: 6_bw_anti_2_C01_2.mpt
EC-Lab ASCII FILE
Nb header lines : 56

Cyclic Voltammetry

Run on channel : 1 (SN 0696)
User :
Electrode connection : standard
Ewe ctrl range : min = -2.50 V, max = 2.50 V
Ewe,I filtering : 50 kHz
Safety Limits :
	Do not start on E overload
Channel : Floating
Acquisition started on : 09/12/2016 16:07:30
Saved on :
	File : 6_bw_anti_2_C01.mpr
	Directory : \\userfs\st659\w2k\EC-Lab\Data\Meth_Blue 12-09-16\
	Host : 144.32.136.43
Device : SP-300 (SN 0182)
Address : USB
EC-Lab for windows v10.44 (software)
Internet server v10.44 (firmware)
Command interpretor v10.44 (firmware)
Electrode material :
Initial state :
Electrolyte :
Comments :
Cable : standard
Reference electrode : SCE Saturated Calomel Electrode (0.241 V)
Electrode surface area : 0.001 cm²
Characteristic mass : 0.001 g
Equivalent Weight : 0.000 g/eq.
Density : 0.000 g/cm3
Ei (V)              0.000
vs.                 Eoc
dE/dt               100.000
dE/dt unit          mV/s
E1 (V)              0.100
vs.                 Ref
Step percent        50
N                   10
E range min (V)     -2.500
E range max (V)     2.500
I Range             Auto
I Range min         Unset
I Range max         Unset
I Range init        Unset
Bandwidth           8
E2 (V)              -0.400
vs.                 Ref
nc cycles           2
Reverse Scan        1
Ef (V)              0.000
vs.                 Eoc

mode	ox/red	error	control changes	counter inc.	time/s	control/V	Ewe/V	<I>/mA	cycle number	(Q-Qo)/C	P/W
2	1	0	1	1	9.966	0.0141243	0.0146149	0.00494636	2	-5.02573e-05	7.22904e-08
2	1	0	0	1	10.0415	0.0216712	0.0221181	0.00484083	2	-4.98927e-05	1.0707e-07
2	1	0	0	1	10.1215	0.0296679	0.0301177	0.00486242	2	-4.95042e-05	1.46445e-07
2	1	0	0	1	10.2015	0.0376646	0.0381216	0.00489052	2	-4.91126e-05	1.86435e-07
2	1	0	0	1	10.2815	0.0456613	0.0461051	0.00493909	2	-4.87176e-05	2.27717e-07
2	1	0	0	1	10.3615	0.053658	0.0540978	0.00498988	2	-4.8319e-05	2.69941e-07
2	1	0	0	1	10.4415	0.0616547	0.0621049	0.00506352	2	-4.79161e-05	3.14469e-07
2	1	0	1	1	10.5213	0.0696514	0.0700922	0.00510397	2	-4.75088e-05	3.57748e-07
2	1	0	1	1	10.6013	0.0776481	0.0780719	0.00517444	2	-4.70957e-05	4.03978e-07
2	1	0	1	1	10.6813	0.0856449	0.0860803	0.0052674	2	-4.66764e-05	4.53419e-07
2	1	0	1	1	10.7613	0.0936416	0.0941041	0.00536536	2	-4.62502e-05	5.04903e-07
2	0	0	0	1	10.8307	0.0994392	0.0998189	0.00280654	2	-4.58878e-05	2.80146e-07
2	0	0	0	1	10.9107	0.0914425	0.0917818	0.000912537	2	-4.57608e-05	8.37543e-08
2	0	0	0	1	10.9907	0.0834458	0.0837834	0.000209027	2	-4.57192e-05	1.7513e-08
2	0	0	0	1	11.0707	0.0754491	0.0758064	-0.000233007	2	-4.57216e-05	1.76635e-08
2	0	0	0	1	11.1507	0.0674523	0.0678144	-0.00056194	2	-4.57553e-05	3.81076e-08
2	0	0	1	1	11.2305	0.0594556	0.0598023	-0.000833135	2	-4.58129e-05	4.98234e-08
2	0	0	1	1	11.3105	0.0514589	0.0518056	-0.00104264	2	-4.58891e-05	5.40143e-08
2	0	0	1	1	11.3905	0.0434622	0.0438119	-0.00122639	2	-4.59808e-05	5.37302e-08
2	0	0	1	1	11.4705	0.0354655	0.0358194	-0.00139022	2	-4.6086e-05	4.9797e-08
2	0	0	1	1	11.5505	0.0274688	0.0278105	-0.00151882	2	-4.62027e-05	4.22389e-08
2	0	0	1	1	11.6305	0.0194721	0.0198271	-0.00163095	2	-4.633e-05	3.2337e-08
2	0	0	0	1	11.7103	0.0114754	0.0118254	-0.00175922	2	-4.64669e-05	2.08034e-08
2	0	0	0	1	11.7903	0.00347864	0.00383505	-0.00186309	2	-4.66127e-05	7.14503e-09
2	0	0	0	1	11.8703	-0.00451807	-0.0041858	-0.00197126	2	-4.67672e-05	8.25128e-09
2	0	0	0	1	11.9503	-0.0125148	-0.0121823	-0.00207533	2	-4.69295e-05	2.52822e-08
2	0	0	0	1	12.0303	-0.0205115	-0.0201692	-0.0021721	2	-4.70995e-05	4.38095e-08
2	0	0	0	1	12.1103	-0.0285082	-0.0281756	-0.00225646	2	-4.72772e-05	6.35771e-08
2	0	0	1	1	12.1901	-0.0365049	-0.0361552	-0.00235519	2	-4.74622e-05	8.51524e-08
2	0	0	1	1	12.2701	-0.0445016	-0.0441423	-0.00245216	2	-4.76552e-05	1.08244e-07
2	0	0	1	1	12.3501	-0.0524984	-0.0521491	-0.00253631	2	-4.78555e-05	1.32266e-07
2	0	0	1	1	12.4301	-0.0604951	-0.0601382	-0.00263441	2	-4.80632e-05	1.58429e-07
2	0	0	1	1	12.5101	-0.0684918	-0.0681552	-0.00273321	2	-4.82787e-05	1.86282e-07
2	0	0	1	1	12.5901	-0.0764885	-0.0761388	-0.0028313	2	-4.85018e-05	2.15571e-07
2	0	0	0	1	12.6699	-0.0844852	-0.084142	-0.00293695	2	-4.87325e-05	2.47121e-07
2	0	0	0	1	12.7499	-0.0924819	-0.0921431	-0.00304115	2	-4.89724e-05	2.80221e-07
2	0	0	0	1	12.8299	-0.100479	-0.100139	-0.003159	2	-4.92208e-05	3.16341e-07
2	0	0	0	1	12.9099	-0.108475	-0.108147	-0.00328789	2	-4.94792e-05	3.55576e-07
2	0	0	0	1	12.9899	-0.116472	-0.116162	-0.0034278	2	-4.97487e-05	3.9818e-07
2	0	0	0	1	13.0699	-0.124469	-0.124156	-0.00361752	2	-5.00309e-05	4.49137e-07
2	0	0	0	1	13.1498	-0.132472	-0.132131	-0.00387087	2	-5.03286e-05	5.11461e-07
2	0	0	1	1	13.2297	-0.140462	-0.140124	-0.00413059	2	-5.06468e-05	5.78795e-07
2	0	0	1	1	13.3097	-0.148459	-0.148126	-0.00449088	2	-5.09911e-05	6.65215e-07
2	0	0	1	1	13.3897	-0.156456	-0.156122	-0.00500039	2	-5.13707e-05	7.80671e-07
2	0	0	1	1	13.4697	-0.164452	-0.164122	-0.00567839	2	-5.17971e-05	9.31947e-07
2	0	0	1	1	13.5497	-0.172449	-0.172133	-0.00655874	2	-5.22857e-05	1.12898e-06
2	0	0	1	1	13.6297	-0.180446	-0.180137	-0.00766048	2	-5.2853e-05	1.37994e-06
2	0	0	0	1	13.7095	-0.188443	-0.188125	-0.0089311	2	-5.35148e-05	1.68016e-06
2	0	0	0	1	13.805	-0.197989	-0.197663	-0.0104321	2	-5.44467e-05	2.06204e-06
2	0	0	1	1	13.9005	-0.207535	-0.207196	-0.0119145	2	-5.55271e-05	2.46863e-06
2	0	0	1	1	13.9805	-0.215531	-0.215195	-0.0130786	2	-5.65493e-05	2.81446e-06
2	0	0	1	1	14.0605	-0.223528	-0.223208	-0.0141074	2	-5.76581e-05	3.14889e-06
2	0	0	0	1	14.1403	-0.231525	-0.23119	-0.0147876	2	-5.88322e-05	3.41875e-06
2	0	0	0	1	14.2203	-0.239522	-0.239182	-0.0153343	2	-6.00594e-05	3.66769e-06
2	0	0	0	1	14.3003	-0.247518	-0.247197	-0.0156969	2	-6.13221e-05	3.88022e-06
2	0	0	0	1	14.3803	-0.255515	-0.255196	-0.0159188	2	-6.2608e-05	4.0624e-06
2	0	0	0	1	14.4603	-0.263512	-0.26318	-0.0160713	2	-6.39089e-05	4.22965e-06
2	0	0	0	1	14.5403	-0.271508	-0.271174	-0.0162073	2	-6.52212e-05	4.39499e-06
2	0	0	1	1	14.6201	-0.279505	-0.279169	-0.0163474	2	-6.65393e-05	4.56369e-06
2	0	0	1	1	14.7001	-0.287502	-0.287157	-0.0164682	2	-6.78704e-05	4.72895e-06
2	0	0	1	1	14.7801	-0.295499	-0.295173	-0.0166043	2	-6.92136e-05	4.90114e-06
2	0	0	1	1	14.8601	-0.303495	-0.303165	-0.0168408	2	-7.05719e-05	5.10553e-06
2	0	0	1	1	14.9401	-0.311492	-0.311163	-0.0171207	2	-7.19504e-05	5.32733e-06
2	0	0	1	1	15.0201	-0.319489	-0.319169	-0.0174414	2	-7.3353e-05	5.56674e-06
2	0	0	0	1	15.0999	-0.327485	-0.327147	-0.0178387	2	-7.47821e-05	5.83587e-06
2	0	0	0	1	15.1799	-0.335482	-0.33516	-0.0183361	2	-7.62497e-05	6.14552e-06
2	0	0	0	1	15.2599	-0.343479	-0.343153	-0.018879	2	-7.77577e-05	6.4784e-06
2	0	0	0	1	15.3399	-0.351476	-0.351148	-0.0195093	2	-7.93122e-05	6.85066e-06
2	0	0	0	1	15.4199	-0.359472	-0.359139	-0.0201721	2	-8.09184e-05	7.24457e-06
2	0	0	0	1	15.4999	-0.367469	-0.36715	-0.020948	2	-8.2582e-05	7.69106e-06
2	0	0	0	1	15.5798	-0.375461	-0.375148	-0.0218021	2	-8.43066e-05	8.17901e-06
2	0	0	1	1	15.6597	-0.383462	-0.38315	-0.0226377	2	-8.61e-05	8.67365e-06
2	0	0	1	1	15.7397	-0.391459	-0.391129	-0.0235636	2	-8.79683e-05	9.2164e-06
2	0	0	1	1	15.8197	-0.399456	-0.399133	-0.0245476	2	-8.99152e-05	9.79776e-06
2	1	0	1	0	15.8913	-0.393458	-0.393073	-0.0193771	2	-9.14027e-05	7.6166e-06
2	1	0	1	0	15.9713	-0.385462	-0.38509	-0.0172729	2	-9.28444e-05	6.65163e-06
[...]
2	1	0	0	0	16.2111	-0.361471	-0.361078	-0.0128289	2	-9.6358e-05	4.63222e-06
2	1	0	0	0	16.2911	-0.353475	-0.353076	-0.0116202	2	-9.73144e-05	4.1028e-06
2	1	0	0	0	16.3711	-0.345478	-0.345101	-0.0105403	2	-9.81796e-05	3.63748e-06
2	1	0	0	0	16.4511	-0.337481	-0.337069	-0.0095546	2	-9.8961e-05	3.22056e-06
2	1	0	0	0	16.5311	-0.329485	-0.329098	-0.00860442	2	-9.96655e-05	2.8317e-06
2	1	0	1	0	16.6109	-0.321488	-0.321104	-0.00775853	2	-0.000100297	2.4913e-06
2	1	0	1	0	16.6909	-0.313491	-0.313117	-0.00694464	2	-0.000100863	2.17449e-06
2	1	0	1	0	16.7709	-0.305494	-0.305117	-0.00613357	2	-0.000101367	1.87146e-06
2	1	0	1	0	16.8509	-0.297498	-0.297097	-0.00543166	2	-0.000101811	1.61373e-06
2	1	0	0	0	16.9619	-0.286402	-0.286005	-0.00427431	2	-0.000102341	1.22248e-06
2	1	0	0	0	17.0418	-0.278406	-0.278007	-0.00356326	2	-0.000102655	9.9061e-07
2	1	0	1	0	17.1217	-0.270409	-0.270024	-0.00291057	2	-0.000102913	7.85925e-07
2	1	0	1	0	17.2017	-0.262412	-0.262031	-0.00219521	2	-0.000103115	5.75211e-07
2	1	0	1	0	17.2817	-0.254415	-0.254036	-0.00140053	2	-0.000103258	3.55787e-07
2	1	0	1	0	17.3617	-0.246419	-0.246029	-0.000530675	2	-0.000103335	1.30561e-07
2	1	0	1	0	17.4417	-0.238422	-0.238028	0.000455083	2	-0.000103337	1.08322e-07
2	1	0	1	0	17.5217	-0.230425	-0.230029	0.00156507	2	-0.000103257	3.6001e-07
2	1	0	0	0	17.6015	-0.222429	-0.222037	0.0028003	2	-0.000103082	6.21771e-07
2	1	0	0	0	17.6815	-0.214432	-0.214015	0.00414551	2	-0.000102803	8.87203e-07
2	1	0	0	0	17.7615	-0.206435	-0.206012	0.0054528	2	-0.000102419	1.12334e-06
2	1	0	0	0	17.8415	-0.198438	-0.198006	0.00662376	2	-0.000101934	1.31155e-06
2	1	0	0	0	17.9215	-0.190442	-0.190008	0.00756076	2	-0.000101365	1.43661e-06
2	1	0	0	0	18.0015	-0.182445	-0.181995	0.00809615	2	-0.000100736	1.47346e-06
2	1	0	1	0	18.0813	-0.174448	-0.173996	0.0083505	2	-0.000100076	1.45296e-06
2	1	0	1	0	18.1613	-0.166452	-0.16601	0.00823621	2	-9.9411e-05	1.36729e-06
2	1	0	1	0	18.2413	-0.158455	-0.157996	0.00793576	2	-9.87612e-05	1.25382e-06
2	1	0	1	0	18.3213	-0.150458	-0.149993	0.00754872	2	-9.81401e-05	1.13226e-06
2	1	0	1	0	18.4013	-0.142461	-0.141984	0.00713379	2	-9.75522e-05	1.01288e-06
2	1	0	1	0	18.4813	-0.134465	-0.133986	0.00670969	2	-9.69983e-05	8.99002e-07
2	1	0	0	0	18.5611	-0.126468	-0.126006	0.00634315	2	-9.64768e-05	7.99272e-07
2	1	0	0	0	18.6411	-0.118471	-0.118008	0.00602112	2	-9.59818e-05	7.10538e-07
2	1	0	0	0	18.7211	-0.110475	-0.110028	0.00576583	2	-9.551e-05	6.34404e-07
2	1	0	0	0	18.8011	-0.102478	-0.102026	0.00553814	2	-9.50577e-05	5.65035e-07
2	1	0	0	0	18.8811	-0.0944811	-0.0940157	0.00535405	2	-9.4621e-05	5.03364e-07
2	1	0	0	0	18.9611	-0.0864844	-0.0860188	0.00520484	2	-9.41973e-05	4.47714e-07
2	1	0	1	0	19.0409	-0.0784877	-0.0780333	0.00511451	2	-9.37846e-05	3.99102e-07
2	1	0	1	0	19.1209	-0.070491	-0.0700347	0.00502601	2	-9.33792e-05	3.51995e-07
2	1	0	1	0	19.2009	-0.0624943	-0.0620406	0.00496568	2	-9.29799e-05	3.08074e-07
2	1	0	1	0	19.2809	-0.0544975	-0.0540437	0.0049	2	-9.25851e-05	2.64814e-07
2	1	0	1	0	19.3609	-0.0465008	-0.0460549	0.00487672	2	-9.21937e-05	2.24597e-07
2	1	0	1	0	19.4409	-0.0385041	-0.0380438	0.0048467	2	-9.18041e-05	1.84387e-07
2	1	0	0	0	19.5207	-0.0305074	-0.0300498	0.00483442	2	-9.14164e-05	1.45274e-07
2	1	0	0	0	19.6007	-0.0225107	-0.0220491	0.00484688	2	-9.10285e-05	1.06869e-07
2	1	0	0	0	19.6807	-0.014514	-0.0140645	0.00485687	2	-9.06403e-05	6.83096e-08
2	1	0	0	0	19.7607	-0.00651725	-0.00606023	0.00487508	2	-9.02507e-05	2.95441e-08
2	1	0	0	0	19.8407	0.00147947	0.00193667	0.00489767	2	-8.98599e-05	9.48515e-09
2	1	0	0	0	19.9207	0.00947618	0.00993398	0.00491119	2	-8.9467e-05	4.87876e-08
2	1	0	1	0	19.966	0.0140243	0.014508	0.0050656	2	-8.92432e-05	7.34919e-08