Folder: CV/TAP_Report/Data/MB_Suscept (part 5)

File: 6_pk_anti_3_C01_2.mpt
EC-Lab ASCII FILE
Nb header lines : 56

Cyclic Voltammetry

Run on channel : 1 (SN 0696)
User :
Electrode connection : standard
Ewe ctrl range : min = -2.50 V, max = 2.50 V
Ewe,I filtering : 50 kHz
Safety Limits :
	Do not start on E overload
Channel : Floating
Acquisition started on : 09/12/2016 16:25:16
Saved on :
	File : 6_pk_anti_3_C01.mpr
	Directory : \\userfs\st659\w2k\EC-Lab\Data\Meth_Blue 12-09-16\
	Host : 144.32.136.43
Device : SP-300 (SN 0182)
Address : USB
EC-Lab for windows v10.44 (software)
Internet server v10.44 (firmware)
Command interpretor v10.44 (firmware)
Electrode material :
Initial state :
Electrolyte :
Comments :
Cable : standard
Reference electrode : SCE Saturated Calomel Electrode (0.241 V)
Electrode surface area : 0.001 cm²
Characteristic mass : 0.001 g
Equivalent Weight : 0.000 g/eq.
Density : 0.000 g/cm3
Ei (V)              0.000
vs.                 Eoc
dE/dt               100.000
dE/dt unit          mV/s
E1 (V)              0.100
vs.                 Ref
Step percent        50
N                   10
E range min (V)     -2.500
E range max (V)     2.500
I Range             Auto
I Range min         Unset
I Range max         Unset
I Range init        Unset
Bandwidth           8
E2 (V)              -0.400
vs.                 Ref
nc cycles           2
Reverse Scan        1
Ef (V)              0.000
vs.                 Eoc

mode	ox/red	error	control changes	counter inc.	time/s	control/V	Ewe/V	<I>/mA	cycle number	(Q-Qo)/C	P/W
2	1	0	0	1	9.965	-0.0190608	-0.018614	0.00453538	2	-2.88486e-05	8.44216e-08
2	1	0	1	1	10.0405	-0.0115138	-0.0110589	0.00457646	2	-2.84804e-05	5.06105e-08
2	1	0	1	1	10.1205	-0.00351712	-0.00307279	0.00455948	2	-2.80931e-05	1.40103e-08
2	1	0	0	1	10.2315	0.00757835	0.00806037	0.00476295	2	-2.75711e-05	3.83912e-08
2	1	0	0	1	10.3115	0.0155751	0.0160513	0.0047532	2	-2.71893e-05	7.62952e-08
2	1	0	0	1	10.3915	0.0235718	0.0240539	0.0047667	2	-2.68079e-05	1.14658e-07
2	1	0	1	1	10.4713	0.0315685	0.0320538	0.0047741	2	-2.64264e-05	1.53028e-07
2	1	0	1	1	10.5513	0.0395653	0.0400303	0.00480564	2	-2.60433e-05	1.92372e-07
2	1	0	1	1	10.6313	0.047562	0.0480404	0.00480697	2	-2.5658e-05	2.30928e-07
2	1	0	1	1	10.7113	0.0555587	0.0560436	0.00486795	2	-2.52704e-05	2.72818e-07
2	1	0	1	1	10.7913	0.0635554	0.0640284	0.00489551	2	-2.48796e-05	3.13452e-07
2	1	0	1	1	10.8713	0.0715522	0.0720325	0.00493877	2	-2.44845e-05	3.55752e-07
2	1	0	0	1	10.9511	0.0795489	0.0800078	0.00502149	2	-2.40858e-05	4.01758e-07
2	1	0	0	1	11.0311	0.0875456	0.0880075	0.00510922	2	-2.36806e-05	4.49649e-07
2	1	0	0	1	11.1111	0.0955423	0.0960168	0.00518363	2	-2.32688e-05	4.97716e-07
2	0	0	0	1	11.1817	0.0974416	0.0978368	0.0018138	2	-2.29752e-05	1.77457e-07
2	0	0	0	1	11.2617	0.0894448	0.0898143	0.000688089	2	-2.28845e-05	6.18002e-08
2	0	0	0	1	11.3417	0.0814481	0.0818089	0.000142221	2	-2.28533e-05	1.16349e-08
2	0	0	1	1	11.4215	0.0734514	0.0738336	-0.000215548	2	-2.28574e-05	1.59147e-08
2	0	0	0	1	11.5325	0.0623559	0.0627225	-0.000656429	2	-2.29005e-05	4.11729e-08
2	0	0	0	1	11.6125	0.0543592	0.0547265	-0.000773383	2	-2.29554e-05	4.23245e-08
2	0	0	0	1	11.6925	0.0463625	0.0467168	-0.000952063	2	-2.30247e-05	4.44774e-08
2	0	0	1	1	11.8035	0.035267	0.0356318	-0.00113593	2	-2.31401e-05	4.04751e-08
2	0	0	0	1	11.8833	0.0272703	0.0276453	-0.00124812	2	-2.3236e-05	3.45047e-08
2	0	0	0	1	11.9633	0.0192736	0.0196554	-0.00135162	2	-2.33408e-05	2.65667e-08
2	0	0	0	1	12.0433	0.0112768	0.0116661	-0.00145497	2	-2.34542e-05	1.69738e-08
2	0	0	0	1	12.1233	0.0032801	0.0036489	-0.00155076	2	-2.3575e-05	5.65856e-09
2	0	0	0	1	12.2033	-0.00471663	-0.00434862	-0.00164064	2	-2.37031e-05	7.13454e-09
2	0	0	0	1	12.2833	-0.0127134	-0.0123464	-0.00171297	2	-2.38376e-05	2.11489e-08
2	0	0	1	1	12.3631	-0.0207101	-0.0203341	-0.00179524	2	-2.39783e-05	3.65047e-08
2	0	0	1	1	12.4431	-0.0287068	-0.0283332	-0.0018666	2	-2.41252e-05	5.28866e-08
2	0	0	1	1	12.5231	-0.0367035	-0.0363137	-0.00194742	2	-2.42782e-05	7.07182e-08
2	0	0	1	1	12.6031	-0.0447003	-0.0443187	-0.00201143	2	-2.44372e-05	8.91437e-08
2	0	0	1	1	12.6831	-0.052697	-0.0523128	-0.00209549	2	-2.46019e-05	1.09621e-07
2	0	0	1	1	12.7631	-0.0606937	-0.0603059	-0.00216592	2	-2.47725e-05	1.30618e-07
2	0	0	0	1	12.8429	-0.0686905	-0.0683204	-0.00227794	2	-2.49492e-05	1.5563e-07
2	0	0	0	1	12.9229	-0.0766872	-0.0763041	-0.00232898	2	-2.51328e-05	1.77711e-07
2	0	0	0	1	13.0029	-0.0846839	-0.0843051	-0.00242133	2	-2.53229e-05	2.0413e-07
2	0	0	0	1	13.0829	-0.0926806	-0.0923015	-0.00251918	2	-2.55211e-05	2.32524e-07
2	0	0	0	1	13.1629	-0.100677	-0.100301	-0.00264813	2	-2.57278e-05	2.65609e-07
2	0	0	0	1	13.2429	-0.108674	-0.108297	-0.00278254	2	-2.59451e-05	3.01342e-07
2	0	0	0	1	13.3228	-0.116662	-0.116306	-0.00297213	2	-2.61752e-05	3.45675e-07
2	0	0	1	1	13.4027	-0.124668	-0.124302	-0.00320951	2	-2.64222e-05	3.98948e-07
2	0	0	1	1	13.4827	-0.132664	-0.132283	-0.00353069	2	-2.66914e-05	4.67051e-07
2	0	0	1	1	13.5627	-0.140661	-0.140297	-0.00396837	2	-2.6991e-05	5.5675e-07
2	0	0	1	1	13.6427	-0.148658	-0.148286	-0.00456063	2	-2.73315e-05	6.76279e-07
2	0	0	1	1	13.7227	-0.156654	-0.156292	-0.00534909	2	-2.77267e-05	8.3602e-07
2	0	0	1	1	13.8027	-0.164651	-0.164305	-0.00630872	2	-2.81915e-05	1.03656e-06
2	0	0	0	1	13.8825	-0.172648	-0.172314	-0.00743523	2	-2.87409e-05	1.28119e-06
2	0	0	0	1	13.9625	-0.180645	-0.180302	-0.00866544	2	-2.93859e-05	1.56239e-06
2	0	0	0	1	14.0425	-0.188641	-0.188301	-0.00983565	2	-3.01276e-05	1.85206e-06
2	0	0	1	1	14.1535	-0.199737	-0.199361	-0.0109634	2	-3.12962e-05	2.18567e-06
2	0	0	1	1	14.2335	-0.207734	-0.207383	-0.0117005	2	-3.22245e-05	2.42649e-06
2	0	0	0	1	14.3133	-0.21573	-0.21538	-0.0122297	2	-3.31999e-05	2.63404e-06
2	0	0	0	1	14.3933	-0.223727	-0.223377	-0.0125021	2	-3.42103e-05	2.79268e-06
2	0	0	0	1	14.4733	-0.231724	-0.231353	-0.0126095	2	-3.52379e-05	2.91725e-06
2	0	0	0	1	14.5533	-0.239721	-0.239364	-0.0126566	2	-3.62719e-05	3.02953e-06
2	0	0	0	1	14.6333	-0.247717	-0.247365	-0.0126255	2	-3.73056e-05	3.12311e-06
2	0	0	0	1	14.7133	-0.255714	-0.255363	-0.0125605	2	-3.83329e-05	3.20748e-06
2	0	0	0	1	14.7932	-0.263708	-0.263341	-0.0124371	2	-3.93501e-05	3.27519e-06
2	0	0	1	1	14.8731	-0.271707	-0.271367	-0.0122858	2	-4.0358e-05	3.33396e-06
2	0	0	1	1	14.9531	-0.279704	-0.279349	-0.0121272	2	-4.13563e-05	3.38772e-06
2	0	0	1	1	15.0331	-0.287701	-0.287345	-0.0120616	2	-4.23453e-05	3.46586e-06
2	0	0	1	1	15.1131	-0.295698	-0.29535	-0.0119485	2	-4.33262e-05	3.52898e-06
2	0	0	1	1	15.1931	-0.303694	-0.303343	-0.0119189	2	-4.43007e-05	3.61551e-06
2	0	0	1	1	15.2731	-0.311691	-0.311355	-0.0118147	2	-4.52709e-05	3.67855e-06
2	0	0	0	1	15.3529	-0.319688	-0.319354	-0.0118422	2	-4.62365e-05	3.78186e-06
2	0	0	0	1	15.4329	-0.327685	-0.327342	-0.011824	2	-4.72038e-05	3.8705e-06
2	0	0	0	1	15.5129	-0.335681	-0.335327	-0.0118793	2	-4.8173e-05	3.98345e-06
2	0	0	0	1	15.5929	-0.343678	-0.343323	-0.0119477	2	-4.91459e-05	4.10193e-06
2	0	0	0	1	15.6729	-0.351675	-0.351322	-0.0120792	2	-5.01254e-05	4.2437e-06
2	0	0	0	1	15.7529	-0.359671	-0.359332	-0.0121421	2	-5.11133e-05	4.36304e-06
2	0	0	1	1	15.8327	-0.367668	-0.367301	-0.0122841	2	-5.21098e-05	4.51197e-06
2	0	0	1	1	15.9127	-0.375665	-0.375337	-0.0124801	2	-5.31215e-05	4.68424e-06
2	0	0	1	1	15.9927	-0.383662	-0.383314	-0.0126704	2	-5.41479e-05	4.85673e-06
2	0	0	1	1	16.0727	-0.391658	-0.391297	-0.0129257	2	-5.51916e-05	5.05778e-06
2	0	0	1	1	16.1517	-0.399555	-0.399204	-0.0131653	2	-5.62418e-05	5.25563e-06
2	1	0	0	0	16.2221	-0.393458	-0.393049	-0.00869493	2	-5.69186e-05	3.41754e-06
2	1	0	0	0	16.3021	-0.385461	-0.385057	-0.0075181	2	-5.75447e-05	2.8949e-06
2	1	0	0	0	16.3821	-0.377464	-0.377042	-0.00672427	2	-5.80937e-05	2.53533e-06
2	1	0	0	0	16.4621	-0.369467	-0.36905	-0.0060111	2	-5.85825e-05	2.2184e-06
2	1	0	0	0	16.542	-0.361466	-0.361056	-0.00542192	2	-5.90193e-05	1.95761e-06
2	1	0	0	0	16.6529	-0.350375	-0.349962	-0.00448663	2	-5.95568e-05	1.57015e-06
2	1	0	0	0	16.7329	-0.342379	-0.341971	-0.00402806	2	-5.9896e-05	1.37748e-06
2	1	0	0	0	16.8129	-0.334382	-0.333972	-0.00357956	2	-6.01993e-05	1.19547e-06
2	1	0	0	0	16.8929	-0.326385	-0.325972	-0.00318277	2	-6.04692e-05	1.0375e-06
2	1	0	0	0	16.9729	-0.318388	-0.317989	-0.00278775	2	-6.07077e-05	8.86472e-07
2	1	0	1	0	17.0527	-0.310392	-0.309991	-0.00243806	2	-6.09159e-05	7.55777e-07
2	1	0	1	0	17.1327	-0.302395	-0.301997	-0.00209757	2	-6.10962e-05	6.33459e-07
2	1	0	1	0	17.2127	-0.294398	-0.293993	-0.00175665	2	-6.12493e-05	5.16442e-07
2	1	0	1	0	17.2927	-0.286401	-0.285987	-0.00141671	2	-6.13754e-05	4.05161e-07
2	1	0	1	0	17.3727	-0.278405	-0.277982	-0.00108374	2	-6.14744e-05	3.0126e-07
2	1	0	1	0	17.4527	-0.270408	-0.270004	-0.000717606	2	-6.15458e-05	1.93757e-07
2	1	0	0	0	17.5325	-0.262411	-0.261993	-0.000334562	2	-6.15872e-05	8.76528e-08
2	1	0	0	0	17.6125	-0.254414	-0.254001	8.61677e-05	2	-6.15967e-05	2.18867e-08
2	1	0	0	0	17.6925	-0.246418	-0.246006	0.000564719	2	-6.15696e-05	1.38924e-07
2	1	0	0	0	17.7725	-0.238421	-0.238004	0.00117022	2	-6.14993e-05	2.78516e-07
2	1	0	0	0	17.8525	-0.230424	-0.230018	0.00188585	2	-6.13771e-05	4.33779e-07
2	1	0	0	0	17.9325	-0.222428	-0.222019	0.0027621	2	-6.11915e-05	6.13238e-07
2	1	0	1	0	18.0123	-0.214431	-0.214013	0.00384402	2	-6.09285e-05	8.22669e-07
2	1	0	1	0	18.0923	-0.206434	-0.206022	0.00508147	2	-6.05725e-05	1.04689e-06
2	1	0	1	0	18.1723	-0.198437	-0.198001	0.00642348	2	-6.01119e-05	1.27185e-06
2	1	0	1	0	18.2523	-0.190441	-0.189991	0.00779494	2	-5.95423e-05	1.48097e-06
2	1	0	1	0	18.3323	-0.182444	-0.18199	0.00893587	2	-5.88708e-05	1.62624e-06
2	1	0	1	0	18.4123	-0.174447	-0.173983	0.00978425	2	-5.81186e-05	1.7023e-06
2	1	0	1	0	18.4922	-0.16646	-0.165988	0.0101767	2	-5.7318e-05	1.68922e-06
2	1	0	1	0	18.6031	-0.155355	-0.154917	0.00985826	2	-5.61834e-05	1.52721e-06
2	1	0	1	0	18.6831	-0.147358	-0.146896	0.00942007	2	-5.53912e-05	1.38377e-06
2	1	0	1	0	18.7631	-0.139362	-0.138903	0.00885801	2	-5.46392e-05	1.23041e-06
2	1	0	1	0	18.8431	-0.131365	-0.13091	0.00827102	2	-5.39342e-05	1.08276e-06
2	1	0	1	0	18.9231	-0.123368	-0.122927	0.00767151	2	-5.32762e-05	9.43034e-07
2	1	0	0	0	19.0029	-0.115371	-0.114928	0.00720904	2	-5.26624e-05	8.28519e-07
2	1	0	0	0	19.0829	-0.107375	-0.106924	0.00673278	2	-5.20851e-05	7.19898e-07
2	1	0	0	0	19.1629	-0.0993779	-0.0989304	0.00634861	2	-5.15401e-05	6.28071e-07
2	1	0	0	0	19.2429	-0.0913812	-0.0909335	0.00609069	2	-5.10223e-05	5.53848e-07
2	1	0	0	0	19.3229	-0.0833845	-0.0829296	0.00574598	2	-5.05273e-05	4.76512e-07
2	1	0	0	0	19.4029	-0.0753877	-0.0749412	0.00556598	2	-5.00515e-05	4.17121e-07
2	1	0	1	0	19.4827	-0.067391	-0.0669405	0.00538373	2	-4.95922e-05	3.6039e-07
2	1	0	1	0	19.5627	-0.0593943	-0.0589446	0.00528076	2	-4.91449e-05	3.11272e-07
2	1	0	1	0	19.6427	-0.0513975	-0.0509509	0.00512866	2	-4.87086e-05	2.6131e-07
2	1	0	1	0	19.7227	-0.0434008	-0.0429528	0.00503115	2	-4.82814e-05	2.16102e-07
2	1	0	1	0	19.8027	-0.0354041	-0.0349699	0.00495057	2	-4.78613e-05	1.73121e-07
2	1	0	1	0	19.8827	-0.0274073	-0.0269386	0.00490505	2	-4.74471e-05	1.32135e-07
2	1	0	1	0	19.9616	-0.0195135	-0.0190724	0.00485274	2	-4.70435e-05	9.25535e-08

File: 6_pk_noanti_1_C01_2.mpt
EC-Lab ASCII FILE
Nb header lines : 56

Cyclic Voltammetry

Run on channel : 1 (SN 0696)
User :
Electrode connection : standard
Ewe ctrl range : min = -2.50 V, max = 2.50 V
Ewe,I filtering : 50 kHz
Safety Limits :
	Do not start on E overload
Channel : Floating
Acquisition started on : 09/12/2016 16:27:19
Saved on :
	File : 6_pk_noanti_1_C01.mpr
	Directory : \\userfs\st659\w2k\EC-Lab\Data\Meth_Blue 12-09-16\
	Host : 144.32.136.43
Device : SP-300 (SN 0182)
Address : USB
EC-Lab for windows v10.44 (software)
Internet server v10.44 (firmware)
Command interpretor v10.44 (firmware)
Electrode material :
Initial state :
Electrolyte :
Comments :
Cable : standard
Reference electrode : SCE Saturated Calomel Electrode (0.241 V)
Electrode surface area : 0.001 cm²
Characteristic mass : 0.001 g
Equivalent Weight : 0.000 g/eq.
Density : 0.000 g/cm3
Ei (V)              0.000
vs.                 Eoc
dE/dt               100.000
dE/dt unit          mV/s
E1 (V)              0.100
vs.                 Ref
Step percent        50
N                   10
E range min (V)     -2.500
E range max (V)     2.500
I Range             Auto
I Range min         Unset
I Range max         Unset
I Range init        Unset
Bandwidth           8
E2 (V)              -0.400
vs.                 Ref
nc cycles           2
Reverse Scan        1
Ef (V)              0.000
vs.                 Eoc

mode	ox/red	error	control changes	counter inc.	time/s	control/V	Ewe/V	<I>/mA	cycle number	(Q-Qo)/C	P/W
2	1	0	0	1	9.9988	-0.0282725	-0.0278507	0.00476727	2	-2.91623e-05	1.32772e-07
2	1	0	1	1	10.0743	-0.0207256	-0.0202972	0.00470528	2	-2.87859e-05	9.55041e-08
2	1	0	1	1	10.1543	-0.0127289	-0.0122933	0.00465311	2	-2.83911e-05	5.72023e-08
2	1	0	1	1	10.2343	-0.00473214	-0.00430005	0.00458766	2	-2.79994e-05	1.97272e-08
2	1	0	1	1	10.3143	0.00326457	0.00369896	0.00456662	2	-2.76097e-05	1.68917e-08
2	1	0	1	1	10.3943	0.0112613	0.0116992	0.00457717	2	-2.72215e-05	5.35494e-08
2	1	0	1	1	10.4743	0.019258	0.0196828	0.00455494	2	-2.68337e-05	8.96539e-08
2	1	0	0	1	10.5541	0.0272547	0.0276941	0.00460973	2	-2.64468e-05	1.27662e-07
2	1	0	0	1	10.6341	0.0352514	0.035681	0.00459165	2	-2.60583e-05	1.63835e-07
2	1	0	0	1	10.7141	0.0432481	0.0436821	0.00463496	2	-2.56679e-05	2.02465e-07
2	1	0	0	1	10.7941	0.0512448	0.0516795	0.00464651	2	-2.52756e-05	2.40129e-07
2	1	0	0	1	10.8741	0.0592416	0.0596821	0.00471487	2	-2.48804e-05	2.81393e-07
2	1	0	0	1	10.9541	0.0672383	0.0676756	0.00474687	2	-2.44815e-05	3.21247e-07
2	1	0	1	1	11.0339	0.075235	0.0756771	0.0047799	2	-2.40787e-05	3.61729e-07
2	1	0	1	1	11.1139	0.0832317	0.0836619	0.00488411	2	-2.36702e-05	4.08614e-07
2	1	0	1	1	11.1939	0.0912284	0.0916533	0.00495966	2	-2.32556e-05	4.54569e-07
2	1	0	1	1	11.2739	0.0992251	0.0996606	0.00503656	2	-2.28339e-05	5.01946e-07
2	0	0	0	1	11.3373	0.0944271	0.094828	0.00156258	2	-2.26841e-05	1.48176e-07
2	0	0	0	1	11.4173	0.0864304	0.0868094	0.000773164	2	-2.26159e-05	6.71179e-08
2	0	0	1	1	11.5283	0.0753349	0.0756877	-0.000105986	2	-2.25936e-05	8.02186e-09
2	0	0	0	1	11.6081	0.0673382	0.0677146	-0.000392107	2	-2.26143e-05	2.65513e-08
2	0	0	0	1	11.6881	0.0593415	0.0597092	-0.000624579	2	-2.26555e-05	3.72931e-08
2	0	0	0	1	11.7681	0.0513448	0.0517043	-0.000810312	2	-2.2713e-05	4.18966e-08
2	0	0	0	1	11.8481	0.0433481	0.043711	-0.000959184	2	-2.27841e-05	4.19269e-08
2	0	0	0	1	11.9281	0.0353514	0.0357075	-0.00110569	2	-2.28673e-05	3.94813e-08
2	0	0	0	1	12.0081	0.0273547	0.027713	-0.00121949	2	-2.29605e-05	3.37958e-08
2	0	0	1	1	12.0879	0.019358	0.0197203	-0.00133408	2	-2.30627e-05	2.63085e-08
2	0	0	1	1	12.1679	0.0113612	0.0117175	-0.00143372	2	-2.31735e-05	1.67996e-08
2	0	0	1	1	12.2479	0.00336453	0.00371486	-0.00151783	2	-2.32917e-05	5.63852e-09
2	0	0	1	1	12.3279	-0.00463218	-0.004285	-0.00160343	2	-2.34172e-05	6.87069e-09
2	0	0	1	1	12.4079	-0.0126289	-0.0122902	-0.00168438	2	-2.35491e-05	2.07013e-08
2	0	0	1	1	12.4879	-0.0206256	-0.0202709	-0.00176536	2	-2.36874e-05	3.57855e-08
2	0	0	1	1	12.5678	-0.0286223	-0.0282641	-0.00187094	2	-2.38316e-05	5.28804e-08
2	0	0	0	1	12.6477	-0.036619	-0.0362662	-0.00190642	2	-2.39821e-05	6.91387e-08
2	0	0	0	1	12.7277	-0.0446158	-0.0442398	-0.00198492	2	-2.41385e-05	8.78123e-08
2	0	0	0	1	12.8077	-0.0526125	-0.0522443	-0.00206491	2	-2.43007e-05	1.0788e-07
2	0	0	0	1	12.8877	-0.0606092	-0.0602452	-0.00212635	2	-2.44689e-05	1.28102e-07
2	0	0	0	1	12.9677	-0.0686059	-0.0682693	-0.00221062	2	-2.46434e-05	1.50917e-07
2	0	0	0	1	13.0477	-0.0766026	-0.0762475	-0.00230542	2	-2.48241e-05	1.75783e-07
2	0	0	1	1	13.1275	-0.0845993	-0.0842175	-0.00237871	2	-2.50115e-05	2.00329e-07
2	0	0	1	1	13.2075	-0.092596	-0.0922434	-0.00249347	2	-2.52073e-05	2.30006e-07
2	0	0	1	1	13.2875	-0.100593	-0.100221	-0.0026115	2	-2.54116e-05	2.61726e-07
2	0	0	1	1	13.3675	-0.108589	-0.108242	-0.00274545	2	-2.56266e-05	2.97174e-07
2	0	0	1	1	13.4475	-0.116586	-0.116245	-0.00292898	2	-2.58547e-05	3.40479e-07
2	0	0	1	1	13.5275	-0.124583	-0.124256	-0.00318388	2	-2.60994e-05	3.95615e-07
2	0	0	0	1	13.6073	-0.13258	-0.132224	-0.00350184	2	-2.63664e-05	4.63029e-07
2	0	0	0	1	13.6873	-0.140576	-0.140237	-0.00394537	2	-2.66642e-05	5.53287e-07
2	0	0	0	1	13.7673	-0.148573	-0.148217	-0.00453192	2	-2.7003e-05	6.71708e-07
2	0	0	0	1	13.8473	-0.15657	-0.156232	-0.00532114	2	-2.73972e-05	8.31334e-07
2	0	0	0	1	13.9273	-0.164567	-0.164238	-0.00631149	2	-2.78621e-05	1.03659e-06
2	0	0	0	1	14.0073	-0.172563	-0.172262	-0.00747814	2	-2.84136e-05	1.2882e-06
2	0	0	1	1	14.0871	-0.18056	-0.18025	-0.00872285	2	-2.90607e-05	1.57229e-06
2	0	0	1	1	14.1671	-0.188557	-0.188266	-0.00993938	2	-2.98084e-05	1.87124e-06
2	0	0	0	1	14.2781	-0.199652	-0.199313	-0.0110853	2	-3.09885e-05	2.20945e-06
2	0	0	0	1	14.3581	-0.207649	-0.207315	-0.0118655	2	-3.19291e-05	2.4599e-06
2	0	0	0	1	14.4381	-0.215646	-0.215302	-0.0123452	2	-3.29207e-05	2.65794e-06
2	0	0	0	1	14.518	-0.223649	-0.223331	-0.0126739	2	-3.39446e-05	2.83047e-06
2	0	0	1	1	14.5979	-0.231639	-0.231304	-0.0128529	2	-3.49868e-05	2.97292e-06
2	0	0	1	1	14.6779	-0.239636	-0.239313	-0.0128649	2	-3.60368e-05	3.07874e-06
2	0	0	1	1	14.7579	-0.247632	-0.24729	-0.0128126	2	-3.70853e-05	3.16844e-06
2	0	0	1	1	14.8379	-0.255629	-0.255311	-0.0126952	2	-3.81271e-05	3.24123e-06
2	0	0	1	1	14.9179	-0.263626	-0.263282	-0.0125639	2	-3.91588e-05	3.30785e-06
2	0	0	1	1	14.9978	-0.271613	-0.27128	-0.012452	2	-4.01787e-05	3.37798e-06
2	0	0	0	1	15.0777	-0.279619	-0.279296	-0.012333	2	-4.11878e-05	3.44455e-06
2	0	0	0	1	15.1577	-0.287616	-0.287269	-0.0121605	2	-4.21874e-05	3.49332e-06
2	0	0	0	1	15.2377	-0.295613	-0.295265	-0.0120866	2	-4.31784e-05	3.56874e-06
2	0	0	0	1	15.3177	-0.303609	-0.303282	-0.0119942	2	-4.41624e-05	3.63764e-06
2	0	0	0	1	15.3977	-0.311606	-0.311267	-0.0119281	2	-4.51414e-05	3.71282e-06
2	0	0	0	1	15.4777	-0.319603	-0.319261	-0.0119348	2	-4.61174e-05	3.81031e-06
2	0	0	1	1	15.5575	-0.3276	-0.327266	-0.0119332	2	-4.70906e-05	3.90534e-06
2	0	0	1	1	15.6375	-0.335596	-0.335262	-0.0119964	2	-4.80676e-05	4.02194e-06
2	0	0	1	1	15.7175	-0.343593	-0.343259	-0.0120584	2	-4.90483e-05	4.13917e-06
2	0	0	1	1	15.7975	-0.35159	-0.351269	-0.0121177	2	-5.00351e-05	4.25659e-06
2	0	0	1	1	15.8775	-0.359586	-0.359256	-0.012235	2	-5.10302e-05	4.39549e-06
2	0	0	1	1	15.9575	-0.367583	-0.367255	-0.0124263	2	-5.20357e-05	4.56361e-06
2	0	0	0	1	16.0373	-0.37558	-0.375245	-0.0125509	2	-5.3052e-05	4.70968e-06
[...]
2	0	0	0	1	16.1973	-0.391573	-0.391237	-0.0129742	2	-5.51357e-05	5.07597e-06
2	0	0	0	1	16.2768	-0.39952	-0.399164	-0.0132248	2	-5.61991e-05	5.27885e-06
2	1	0	0	0	16.3377	-0.394372	-0.393988	-0.00894674	2	-5.68e-05	3.52491e-06
2	1	0	0	0	16.4177	-0.386375	-0.385983	-0.0077442	2	-5.74429e-05	2.98913e-06
2	1	0	0	0	16.4977	-0.378379	-0.377989	-0.00689014	2	-5.80052e-05	2.6044e-06
2	1	0	0	0	16.5777	-0.370382	-0.370006	-0.00618937	2	-5.85056e-05	2.29011e-06
2	1	0	1	0	16.6575	-0.362385	-0.362006	-0.00557181	2	-5.89515e-05	2.01703e-06
2	1	0	1	0	16.7375	-0.354389	-0.354012	-0.00499113	2	-5.93532e-05	1.76692e-06
2	1	0	1	0	16.8175	-0.346392	-0.345991	-0.00454384	2	-5.97133e-05	1.57213e-06
2	1	0	0	0	16.9285	-0.335296	-0.33489	-0.0036644	2	-6.01548e-05	1.22717e-06
2	1	0	0	0	17.0085	-0.3273	-0.326926	-0.00327543	2	-6.04319e-05	1.07082e-06
2	1	0	1	0	17.0883	-0.319303	-0.318908	-0.00287514	2	-6.06765e-05	9.16904e-07
2	1	0	1	0	17.1683	-0.311306	-0.310917	-0.00252494	2	-6.08915e-05	7.85046e-07
2	1	0	1	0	17.2483	-0.30331	-0.30291	-0.00216646	2	-6.1078e-05	6.56245e-07
2	1	0	1	0	17.3283	-0.295313	-0.294918	-0.00181958	2	-6.12369e-05	5.36627e-07
2	1	0	1	0	17.4083	-0.287316	-0.286927	-0.00148462	2	-6.13684e-05	4.25978e-07
2	1	0	1	0	17.4883	-0.279319	-0.278922	-0.00114429	2	-6.1473e-05	3.19168e-07
2	1	0	0	0	17.5681	-0.271323	-0.270932	-0.000781647	2	-6.1549e-05	2.11773e-07
2	1	0	0	0	17.6481	-0.263326	-0.262929	-0.000384418	2	-6.15955e-05	1.01075e-07
2	1	0	0	0	17.7281	-0.255329	-0.254932	3.63817e-05	2	-6.16098e-05	9.27486e-09
2	1	0	0	0	17.8081	-0.247333	-0.246941	0.000523334	2	-6.15873e-05	1.29233e-07
2	1	0	0	0	17.8881	-0.239336	-0.238934	0.00112291	2	-6.15215e-05	2.68301e-07
2	1	0	0	0	17.9681	-0.231339	-0.230926	0.0018335	2	-6.14037e-05	4.23403e-07
2	1	0	0	0	18.048	-0.22334	-0.222933	0.00275288	2	-6.12227e-05	6.13708e-07
2	1	0	1	0	18.1279	-0.215346	-0.21493	0.00377005	2	-6.09637e-05	8.10297e-07
2	1	0	1	0	18.2079	-0.207349	-0.206945	0.00502628	2	-6.06121e-05	1.04017e-06
2	1	0	1	0	18.2879	-0.199352	-0.198923	0.00639617	2	-6.01553e-05	1.27235e-06
2	1	0	1	0	18.3679	-0.191355	-0.190914	0.00774963	2	-5.95883e-05	1.47951e-06
2	1	0	1	0	18.4479	-0.183359	-0.182898	0.00896347	2	-5.89168e-05	1.63941e-06
2	1	0	1	0	18.5279	-0.175362	-0.174901	0.00982847	2	-5.81622e-05	1.71901e-06
2	1	0	0	0	18.6232	-0.165816	-0.165354	0.010146	2	-5.71956e-05	1.67767e-06
2	1	0	1	0	18.7187	-0.15627	-0.15583	0.00997834	2	-5.62098e-05	1.55492e-06
2	1	0	1	0	18.7987	-0.148273	-0.147844	0.0095734	2	-5.54065e-05	1.41537e-06
2	1	0	1	0	18.8787	-0.140276	-0.139834	0.00898949	2	-5.46429e-05	1.25704e-06
2	1	0	1	0	18.9587	-0.13228	-0.131832	0.0084146	2	-5.39262e-05	1.10931e-06
2	1	0	0	0	19.0385	-0.124283	-0.123847	0.00783749	2	-5.32586e-05	9.70647e-07
2	1	0	0	0	19.1185	-0.116286	-0.115854	0.0073161	2	-5.26333e-05	8.47602e-07
2	1	0	0	0	19.1985	-0.10829	-0.107858	0.00686079	2	-5.20469e-05	7.39991e-07
2	1	0	0	0	19.2785	-0.100293	-0.099849	0.0064561	2	-5.14937e-05	6.44636e-07
2	1	0	0	0	19.3585	-0.0922962	-0.0918625	0.00616424	2	-5.09686e-05	5.66262e-07
2	1	0	0	0	19.4385	-0.0842995	-0.0838484	0.00586962	2	-5.04666e-05	4.92158e-07
2	1	0	1	0	19.5183	-0.0763027	-0.0758645	0.00565801	2	-4.99855e-05	4.29242e-07
2	1	0	1	0	19.5983	-0.068306	-0.0678846	0.00545018	2	-4.95195e-05	3.69983e-07
2	1	0	1	0	19.6783	-0.0603093	-0.059866	0.00533737	2	-4.9067e-05	3.19527e-07
2	1	0	1	0	19.7583	-0.0523126	-0.0518766	0.00515141	2	-4.86258e-05	2.67237e-07
2	1	0	1	0	19.8383	-0.0443159	-0.0438782	0.005051	2	-4.81937e-05	2.21628e-07
2	1	0	1	0	19.9183	-0.0363192	-0.035873	0.00502302	2	-4.77692e-05	1.80191e-07
2	1	0	1	0	19.9957	-0.0285645	-0.0281451	0.00497622	2	-4.73643e-05	1.40056e-07