Folder: CV/TAP_Report/Data/MB_Suscept (part 6)

File: 6_pk_noanti_2_C01_2.mpt
EC-Lab ASCII FILE
Nb header lines : 56

Cyclic Voltammetry

Run on channel : 1 (SN 0696)
User :
Electrode connection : standard
Ewe ctrl range : min = -2.50 V, max = 2.50 V
Ewe,I filtering : 50 kHz
Safety Limits :
	Do not start on E overload
Channel : Floating
Acquisition started on : 09/12/2016 16:29:14
Saved on :
	File : 6_pk_noanti_2_C01.mpr
	Directory : \\userfs\st659\w2k\EC-Lab\Data\Meth_Blue 12-09-16\
	Host : 144.32.136.43
Device : SP-300 (SN 0182)
Address : USB
EC-Lab for windows v10.44 (software)
Internet server v10.44 (firmware)
Command interpretor v10.44 (firmware)
Electrode material :
Initial state :
Electrolyte :
Comments :
Cable : standard
Reference electrode : SCE Saturated Calomel Electrode (0.241 V)
Electrode surface area : 0.001 cm²
Characteristic mass : 0.001 g
Equivalent Weight : 0.000 g/eq.
Density : 0.000 g/cm3
Ei (V)              0.000
vs.                 Eoc
dE/dt               100.000
dE/dt unit          mV/s
E1 (V)              0.100
vs.                 Ref
Step percent        50
N                   10
E range min (V)     -2.500
E range max (V)     2.500
I Range             Auto
I Range min         Unset
I Range max         Unset
I Range init        Unset
Bandwidth           8
E2 (V)              -0.400
vs.                 Ref
nc cycles           2
Reverse Scan        1
Ef (V)              0.000
vs.                 Eoc

mode	ox/red	error	control changes	counter inc.	time/s	control/V	Ewe/V	<I>/mA	cycle number	(Q-Qo)/C	P/W
2	1	0	1	1	9.965	-0.0341866	-0.0337162	0.00477013	2	-2.82626e-05	1.60831e-07
2	1	0	0	1	10.0405	-0.0266397	-0.0261594	0.00471402	2	-2.78867e-05	1.23316e-07
2	1	0	0	1	10.1205	-0.0186429	-0.018186	0.00462613	2	-2.74938e-05	8.41307e-08
2	1	0	0	1	10.2005	-0.0106462	-0.0101789	0.00459138	2	-2.71047e-05	4.67352e-08
2	1	0	0	1	10.3105	0.000349438	0.000834911	0.00476404	2	-2.65919e-05	3.97755e-09
2	1	0	0	1	10.3905	0.00834606	0.00883583	0.0047569	2	-2.62103e-05	4.20311e-08
2	1	0	1	1	10.4703	0.0163428	0.016855	0.0047363	2	-2.58304e-05	7.98302e-08
2	1	0	1	1	10.5503	0.0243395	0.0248413	0.00474051	2	-2.545e-05	1.1776e-07
2	1	0	1	1	10.6303	0.0323363	0.032842	0.00474556	2	-2.50693e-05	1.55854e-07
2	1	0	1	1	10.7103	0.040333	0.0408295	0.00477617	2	-2.46873e-05	1.95009e-07
2	1	0	1	1	10.7903	0.0483298	0.0488112	0.00480784	2	-2.43035e-05	2.34676e-07
2	1	0	1	1	10.8703	0.0563265	0.0568303	0.00484265	2	-2.39166e-05	2.75209e-07
2	1	0	0	1	10.9501	0.0643232	0.0647984	0.00490041	2	-2.35273e-05	3.17538e-07
2	1	0	0	1	11.0301	0.07232	0.0728057	0.00494072	2	-2.31328e-05	3.59712e-07
2	1	0	0	1	11.1101	0.0803167	0.0808157	0.00501291	2	-2.27336e-05	4.05122e-07
2	1	0	0	1	11.1901	0.0883135	0.0887914	0.00508485	2	-2.23284e-05	4.51491e-07
2	1	0	0	1	11.2701	0.0963102	0.0968069	0.00518634	2	-2.19163e-05	5.02074e-07
2	0	0	0	1	11.3325	0.0974098	0.0977941	0.00178988	2	-2.16658e-05	1.75039e-07
2	0	0	0	1	11.4125	0.089413	0.0898088	0.000667598	2	-2.15763e-05	5.99562e-08
2	0	0	0	1	11.4925	0.0814163	0.0818069	0.000135058	2	-2.1546e-05	1.10487e-08
2	0	0	0	1	11.5725	0.0734195	0.0738138	-0.00021689	2	-2.15501e-05	1.60095e-08
2	0	0	0	1	11.6525	0.0654228	0.0658226	-0.000490591	2	-2.15789e-05	3.2292e-08
2	0	0	1	1	11.7323	0.0574261	0.0578261	-0.000688777	2	-2.16269e-05	3.98293e-08
2	0	0	1	1	11.8123	0.0494293	0.0498193	-0.000881605	2	-2.16899e-05	4.3921e-08
2	0	0	1	1	11.8923	0.0414326	0.0418383	-0.00100999	2	-2.17657e-05	4.22562e-08
2	0	0	1	1	11.9723	0.0334358	0.0338302	-0.00113936	2	-2.18527e-05	3.85446e-08
2	0	0	1	1	12.0523	0.0254391	0.0258432	-0.00125155	2	-2.19489e-05	3.23441e-08
2	0	0	1	1	12.1323	0.0174424	0.0178491	-0.00134989	2	-2.2054e-05	2.40943e-08
2	0	0	0	1	12.2121	0.00944561	0.00983949	-0.00144246	2	-2.21669e-05	1.4193e-08
2	0	0	0	1	12.2921	0.00144887	0.0018426	-0.0015401	2	-2.22871e-05	2.8378e-09
2	0	0	0	1	12.3721	-0.00654787	-0.00615069	-0.00160551	2	-2.24138e-05	9.87496e-09
2	0	0	0	1	12.4521	-0.0145446	-0.0141611	-0.00169297	2	-2.25468e-05	2.39744e-08
2	0	0	0	1	12.5321	-0.0225414	-0.0221574	-0.00176977	2	-2.26857e-05	3.92135e-08
2	0	0	0	1	12.6121	-0.0305381	-0.0301477	-0.00183635	2	-2.28304e-05	5.53619e-08
2	0	0	1	1	12.6919	-0.0385349	-0.0381412	-0.00190973	2	-2.29807e-05	7.28394e-08
2	0	0	1	1	12.7719	-0.0465316	-0.0461411	-0.00197417	2	-2.31367e-05	9.10904e-08
2	0	0	1	1	12.8519	-0.0545283	-0.0541409	-0.0020474	2	-2.32984e-05	1.10848e-07
2	0	0	1	1	12.9319	-0.0625251	-0.0621298	-0.00213713	2	-2.34657e-05	1.3278e-07
2	0	0	1	1	13.0119	-0.0705218	-0.0701619	-0.00220434	2	-2.36389e-05	1.5466e-07
2	0	0	1	1	13.0919	-0.0785186	-0.0781308	-0.00228686	2	-2.38186e-05	1.78674e-07
2	0	0	0	1	13.1717	-0.0865153	-0.0861334	-0.00236058	2	-2.40047e-05	2.03325e-07
2	0	0	0	1	13.2517	-0.0945121	-0.0941388	-0.00246087	2	-2.41989e-05	2.31663e-07
2	0	0	0	1	13.3317	-0.102509	-0.102143	-0.00258187	2	-2.44019e-05	2.6372e-07
2	0	0	0	1	13.4117	-0.110506	-0.110142	-0.0027498	2	-2.46155e-05	3.02869e-07
2	0	0	0	1	13.4917	-0.118502	-0.11814	-0.0029285	2	-2.48431e-05	3.45973e-07
2	0	0	0	1	13.5717	-0.126499	-0.126129	-0.00318986	2	-2.50881e-05	4.02333e-07
2	0	0	1	1	13.6515	-0.134496	-0.134122	-0.00353719	2	-2.53567e-05	4.74413e-07
2	0	0	1	1	13.7315	-0.142493	-0.142124	-0.00402087	2	-2.56587e-05	5.71461e-07
2	0	0	1	1	13.8115	-0.150489	-0.15013	-0.00465907	2	-2.60049e-05	6.99464e-07
2	0	0	1	1	13.8915	-0.158486	-0.158126	-0.00547801	2	-2.64099e-05	8.66217e-07
2	0	0	1	1	13.9715	-0.166483	-0.166127	-0.00652496	2	-2.68899e-05	1.08397e-06
2	0	0	1	1	14.0515	-0.17448	-0.174131	-0.00773104	2	-2.74598e-05	1.34622e-06
2	0	0	0	1	14.1313	-0.182476	-0.182138	-0.00902234	2	-2.8127e-05	1.64331e-06
2	0	0	0	1	14.2113	-0.190473	-0.190131	-0.0101977	2	-2.8895e-05	1.93891e-06
2	0	0	1	1	14.3223	-0.201568	-0.201207	-0.0112856	2	-3.0098e-05	2.27073e-06
2	0	0	1	1	14.4023	-0.209565	-0.209212	-0.0119876	2	-3.10494e-05	2.50795e-06
2	0	0	1	1	14.4823	-0.217562	-0.217209	-0.0124258	2	-3.20467e-05	2.699e-06
2	0	0	1	1	14.5623	-0.225559	-0.225212	-0.0126838	2	-3.30724e-05	2.85653e-06
2	0	0	0	1	14.6421	-0.233555	-0.233187	-0.012829	2	-3.411e-05	2.99155e-06
2	0	0	0	1	14.7221	-0.241552	-0.241193	-0.0127833	2	-3.51534e-05	3.08324e-06
2	0	0	0	1	14.8021	-0.249549	-0.249176	-0.0127103	2	-3.61928e-05	3.16711e-06
2	0	0	0	1	14.8821	-0.257546	-0.257162	-0.0125629	2	-3.72236e-05	3.2307e-06
2	0	0	0	1	14.9621	-0.265542	-0.265186	-0.0124291	2	-3.82431e-05	3.29602e-06
2	0	0	0	1	15.0421	-0.273539	-0.273179	-0.0122661	2	-3.92507e-05	3.35084e-06
2	0	0	1	1	15.1219	-0.281536	-0.281174	-0.0121544	2	-4.02442e-05	3.41751e-06
2	0	0	1	1	15.2019	-0.289533	-0.289159	-0.0120487	2	-4.12291e-05	3.484e-06
2	0	0	1	1	15.2819	-0.297529	-0.29715	-0.0119124	2	-4.22047e-05	3.53975e-06
2	0	0	1	1	15.3619	-0.305526	-0.305168	-0.0118413	2	-4.31728e-05	3.61359e-06
2	0	0	1	1	15.4419	-0.313523	-0.31316	-0.0117834	2	-4.41357e-05	3.69008e-06
2	0	0	1	1	15.5219	-0.32152	-0.321162	-0.0117628	2	-4.50953e-05	3.77775e-06
2	0	0	1	1	15.6018	-0.329523	-0.329179	-0.0117529	2	-4.60528e-05	3.86882e-06
2	0	0	0	1	15.6817	-0.337513	-0.337135	-0.0117587	2	-4.70116e-05	3.96428e-06
2	0	0	0	1	15.7617	-0.34551	-0.345148	-0.0119068	2	-4.79751e-05	4.10959e-06
2	0	0	0	1	15.8417	-0.353507	-0.353133	-0.0119267	2	-4.89444e-05	4.2117e-06
2	0	0	0	1	15.9217	-0.361503	-0.361139	-0.0120038	2	-4.99217e-05	4.33503e-06
2	0	0	0	1	16.0017	-0.3695	-0.369125	-0.0121616	2	-5.09091e-05	4.48915e-06
[...]
2	0	0	1	1	16.1615	-0.385494	-0.38513	-0.0125452	2	-5.29216e-05	4.83151e-06
2	0	0	1	1	16.2415	-0.39349	-0.393114	-0.0127954	2	-5.39533e-05	5.03004e-06
2	1	0	0	0	16.3121	-0.399488	-0.399065	-0.0105994	2	-5.48653e-05	4.22985e-06
2	1	0	0	0	16.3921	-0.391491	-0.391061	-0.00812749	2	-5.55672e-05	3.17834e-06
2	1	0	0	0	16.4721	-0.383494	-0.383044	-0.00711804	2	-5.61563e-05	2.72652e-06
2	1	0	1	0	16.5519	-0.375498	-0.375067	-0.00635473	2	-5.66734e-05	2.38345e-06
2	1	0	1	0	16.6319	-0.367501	-0.367062	-0.00569647	2	-5.71351e-05	2.09096e-06
2	1	0	1	0	16.7119	-0.359504	-0.359063	-0.00514149	2	-5.75482e-05	1.84612e-06
2	1	0	0	0	16.8229	-0.348409	-0.34797	-0.00421295	2	-5.80528e-05	1.46598e-06
2	1	0	0	0	16.9029	-0.340412	-0.339971	-0.00377059	2	-5.83718e-05	1.28189e-06
2	1	0	0	0	16.9829	-0.332415	-0.331984	-0.0033697	2	-5.86565e-05	1.11869e-06
2	1	0	1	0	17.0627	-0.324418	-0.323984	-0.00295159	2	-5.8908e-05	9.56268e-07
2	1	0	1	0	17.1427	-0.316422	-0.315998	-0.00261265	2	-5.91303e-05	8.25593e-07
2	1	0	1	0	17.2227	-0.308425	-0.308011	-0.00224108	2	-5.93238e-05	6.90278e-07
2	1	0	1	0	17.3027	-0.300428	-0.299986	-0.00190877	2	-5.94898e-05	5.72605e-07
2	1	0	1	0	17.3827	-0.292431	-0.291989	-0.00157645	2	-5.96291e-05	4.60306e-07
2	1	0	1	0	17.4627	-0.284435	-0.284003	-0.00125601	2	-5.97421e-05	3.5671e-07
2	1	0	0	0	17.5425	-0.276438	-0.276009	-0.000911571	2	-5.98275e-05	2.51601e-07
2	1	0	0	0	17.6225	-0.268441	-0.268024	-0.000541463	2	-5.98858e-05	1.45125e-07
2	1	0	0	0	17.7025	-0.260444	-0.260009	-0.00015479	2	-5.99137e-05	4.02468e-08
2	1	0	0	0	17.7825	-0.252448	-0.252023	0.000306024	2	-5.99085e-05	7.7125e-08
2	1	0	0	0	17.8625	-0.244451	-0.244027	0.00081703	2	-5.98645e-05	1.99378e-07
2	1	0	0	0	17.9425	-0.236454	-0.23604	0.00143329	2	-5.97745e-05	3.38313e-07
2	1	0	1	0	18.0223	-0.228458	-0.228037	0.00221572	2	-5.96284e-05	5.05266e-07
2	1	0	1	0	18.1023	-0.220461	-0.220034	0.00316925	2	-5.94134e-05	6.97344e-07
2	1	0	1	0	18.1823	-0.212464	-0.212024	0.00431118	2	-5.91143e-05	9.14075e-07
2	1	0	1	0	18.2623	-0.204467	-0.204017	0.00561829	2	-5.87174e-05	1.14623e-06
2	1	0	1	0	18.3423	-0.196471	-0.196021	0.0070189	2	-5.82116e-05	1.37585e-06
2	1	0	1	0	18.4223	-0.188474	-0.187988	0.00833561	2	-5.75959e-05	1.567e-06
2	1	0	0	0	18.5021	-0.180477	-0.179974	0.00944308	2	-5.68847e-05	1.69951e-06
2	1	0	0	0	18.5821	-0.17248	-0.171983	0.0101135	2	-5.60998e-05	1.73935e-06
2	1	0	1	0	18.6931	-0.161385	-0.160889	0.0101394	2	-5.49545e-05	1.63133e-06
2	1	0	1	0	18.7731	-0.153388	-0.152914	0.00986426	2	-5.41334e-05	1.50839e-06
2	1	0	1	0	18.8531	-0.145391	-0.144916	0.00940843	2	-5.33436e-05	1.36343e-06
2	1	0	1	0	18.9331	-0.137395	-0.136921	0.00876272	2	-5.25982e-05	1.1998e-06
2	1	0	0	0	19.0129	-0.129398	-0.128927	0.00815451	2	-5.19025e-05	1.05133e-06
2	1	0	0	0	19.0929	-0.121401	-0.120934	0.00758927	2	-5.12523e-05	9.178e-07
2	1	0	0	0	19.1729	-0.113404	-0.112925	0.00709479	2	-5.06445e-05	8.01182e-07
2	1	0	0	0	19.2529	-0.105408	-0.104938	0.00671205	2	-5.00736e-05	7.04349e-07
2	1	0	0	0	19.3329	-0.0974109	-0.0969136	0.00631216	2	-4.9534e-05	6.11734e-07
2	1	0	0	0	19.4129	-0.0894141	-0.0889246	0.00605363	2	-4.90209e-05	5.38317e-07
2	1	0	1	0	19.4927	-0.0814174	-0.0809296	0.00578296	2	-4.85307e-05	4.68013e-07
2	1	0	1	0	19.5727	-0.0734206	-0.072962	0.00556059	2	-4.80582e-05	4.05711e-07
2	1	0	1	0	19.6527	-0.0654239	-0.0649377	0.00541274	2	-4.76009e-05	3.51491e-07
2	1	0	1	0	19.7327	-0.0574272	-0.0569406	0.00522581	2	-4.71564e-05	2.97561e-07
2	1	0	1	0	19.8127	-0.0494304	-0.0489564	0.00514839	2	-4.6723e-05	2.52047e-07
2	1	0	1	0	19.8927	-0.0414337	-0.0409697	0.00503914	2	-4.62982e-05	2.06452e-07
2	1	0	1	0	19.9611	-0.0345847	-0.0340997	0.00499918	2	-4.59407e-05	1.70471e-07

File: 6_pk_noanti_3_C01_2.mpt
EC-Lab ASCII FILE
Nb header lines : 56

Cyclic Voltammetry

Run on channel : 1 (SN 0696)
User :
Electrode connection : standard
Ewe ctrl range : min = -2.50 V, max = 2.50 V
Ewe,I filtering : 50 kHz
Safety Limits :
	Do not start on E overload
Channel : Floating
Acquisition started on : 09/12/2016 16:31:23
Saved on :
	File : 6_pk_noanti_3_C01.mpr
	Directory : \\userfs\st659\w2k\EC-Lab\Data\Meth_Blue 12-09-16\
	Host : 144.32.136.43
Device : SP-300 (SN 0182)
Address : USB
EC-Lab for windows v10.44 (software)
Internet server v10.44 (firmware)
Command interpretor v10.44 (firmware)
Electrode material :
Initial state :
Electrolyte :
Comments :
Cable : standard
Reference electrode : SCE Saturated Calomel Electrode (0.241 V)
Electrode surface area : 0.001 cm²
Characteristic mass : 0.001 g
Equivalent Weight : 0.000 g/eq.
Density : 0.000 g/cm3
Ei (V)              0.000
vs.                 Eoc
dE/dt               100.000
dE/dt unit          mV/s
E1 (V)              0.100
vs.                 Ref
Step percent        50
N                   10
E range min (V)     -2.500
E range max (V)     2.500
I Range             Auto
I Range min         Unset
I Range max         Unset
I Range init        Unset
Bandwidth           8
E2 (V)              -0.400
vs.                 Ref
nc cycles           2
Reverse Scan        1
Ef (V)              0.000
vs.                 Eoc

mode	ox/red	error	control changes	counter inc.	time/s	control/V	Ewe/V	<I>/mA	cycle number	(Q-Qo)/C	P/W
2	1	0	0	1	9.9648	-0.0256793	-0.0252478	0.00472379	2	-2.89044e-05	1.19265e-07
2	1	0	1	1	10.0403	-0.0181324	-0.0176882	0.00473164	2	-2.85256e-05	8.3694e-08
2	1	0	1	1	10.1203	-0.0101357	-0.00969106	0.00468232	2	-2.81278e-05	4.53767e-08
2	1	0	1	1	10.2003	-0.00213897	-0.00169565	0.0046577	2	-2.77328e-05	7.89784e-09
2	1	0	1	1	10.2803	0.00585774	0.00630866	0.00465258	2	-2.73395e-05	2.93515e-08
2	1	0	1	1	10.3603	0.0138545	0.0143238	0.00465658	2	-2.69474e-05	6.66997e-08
2	1	0	1	1	10.4403	0.0218512	0.0223111	0.00459672	2	-2.65557e-05	1.02558e-07
2	1	0	0	1	10.5201	0.0298479	0.030301	0.00464585	2	-2.61643e-05	1.40774e-07
2	1	0	0	1	10.6001	0.0378446	0.0382918	0.00465217	2	-2.57709e-05	1.7814e-07
2	1	0	0	1	10.6801	0.0458413	0.0462838	0.00467806	2	-2.53755e-05	2.16518e-07
2	1	0	0	1	10.7601	0.053838	0.0542913	0.00475091	2	-2.49777e-05	2.57933e-07
2	1	0	0	1	10.8401	0.0618347	0.0622956	0.00475859	2	-2.45765e-05	2.96439e-07
2	1	0	0	1	10.9201	0.0698315	0.0702806	0.00482913	2	-2.41712e-05	3.39394e-07
2	1	0	1	1	10.9999	0.0778282	0.0782752	0.0048786	2	-2.37617e-05	3.81873e-07
2	1	0	1	1	11.0799	0.0858249	0.0862646	0.00497564	2	-2.33459e-05	4.29222e-07
2	1	0	1	1	11.1599	0.0938216	0.0942666	0.00506943	2	-2.29232e-05	4.77878e-07
2	0	0	0	1	11.2273	0.0994193	0.0998045	0.00312735	2	-2.25753e-05	3.12124e-07
2	0	0	0	1	11.3073	0.0914226	0.0918224	0.0012373	2	-2.24454e-05	1.13611e-07
2	0	0	1	1	11.4183	0.0803271	0.0807107	0.000183209	2	-2.23818e-05	1.47869e-08
2	0	0	1	1	11.4983	0.0723304	0.0727136	-0.000172271	2	-2.23832e-05	1.25264e-08
2	0	0	0	1	11.5781	0.0643337	0.0647143	-0.000439038	2	-2.24099e-05	2.84121e-08
2	0	0	0	1	11.6581	0.056337	0.0567162	-0.000672793	2	-2.24557e-05	3.81583e-08
2	0	0	0	1	11.7381	0.0483403	0.0487021	-0.000844743	2	-2.25175e-05	4.11408e-08
2	0	0	0	1	11.8181	0.0403436	0.0407167	-0.00100427	2	-2.25926e-05	4.08907e-08
2	0	0	0	1	11.8981	0.0323469	0.032723	-0.00113988	2	-2.26792e-05	3.73004e-08
2	0	0	0	1	11.9781	0.0243501	0.0247201	-0.00125329	2	-2.27758e-05	3.09815e-08
2	0	0	1	1	12.0579	0.0163534	0.016743	-0.00135896	2	-2.28816e-05	2.27531e-08
2	0	0	1	1	12.1379	0.00835672	0.00871152	-0.00146724	2	-2.29957e-05	1.27818e-08
2	0	0	1	1	12.2179	0.000357748	0.000707633	-0.00155893	2	-2.31174e-05	1.10315e-09
2	0	0	1	1	12.2979	-0.00763671	-0.00726616	-0.00164912	2	-2.32459e-05	1.19828e-08
2	0	0	1	1	12.3779	-0.0156334	-0.0152501	-0.00172008	2	-2.33813e-05	2.62314e-08
2	0	0	1	1	12.4579	-0.0236301	-0.0232657	-0.00180124	2	-2.35228e-05	4.1907e-08
2	0	0	0	1	12.5377	-0.0316269	-0.0312579	-0.00187566	2	-2.36704e-05	5.86291e-08
2	0	0	0	1	12.6177	-0.0396236	-0.0392546	-0.00194908	2	-2.38241e-05	7.65102e-08
2	0	0	0	1	12.6977	-0.0476203	-0.0472561	-0.00203738	2	-2.39837e-05	9.62787e-08
2	0	0	0	1	12.7777	-0.055617	-0.0552677	-0.00210068	2	-2.41494e-05	1.161e-07
2	0	0	0	1	12.8577	-0.0636137	-0.0632607	-0.00218642	2	-2.4321e-05	1.38315e-07
2	0	0	0	1	12.9377	-0.0716104	-0.0712542	-0.0022563	2	-2.44988e-05	1.60771e-07
2	0	0	1	1	13.0175	-0.0796072	-0.0792278	-0.00234348	2	-2.46832e-05	1.85669e-07
2	0	0	1	1	13.0975	-0.0876039	-0.0872232	-0.00244666	2	-2.48749e-05	2.13406e-07
2	0	0	1	1	13.1775	-0.0956006	-0.0952227	-0.00254707	2	-2.5075e-05	2.42539e-07
2	0	0	1	1	13.2575	-0.103597	-0.103256	-0.00267009	2	-2.52847e-05	2.75702e-07
2	0	0	1	1	13.3375	-0.111594	-0.111228	-0.00283272	2	-2.55056e-05	3.15078e-07
2	0	0	1	1	13.4175	-0.119591	-0.119246	-0.00305214	2	-2.57412e-05	3.63957e-07
2	0	0	0	1	13.4973	-0.127587	-0.127228	-0.0033081	2	-2.59952e-05	4.20882e-07
2	0	0	0	1	13.5773	-0.135584	-0.135218	-0.00368909	2	-2.62749e-05	4.98832e-07
2	0	0	0	1	13.6573	-0.143581	-0.143239	-0.00418624	2	-2.65896e-05	5.99632e-07
2	0	0	0	1	13.7373	-0.151578	-0.151237	-0.00485947	2	-2.69505e-05	7.34934e-07
2	0	0	0	1	13.8173	-0.159574	-0.159218	-0.00572376	2	-2.73732e-05	9.11322e-07
2	0	0	0	1	13.8973	-0.167571	-0.16723	-0.00680442	2	-2.78737e-05	1.1379e-06
2	0	0	1	1	13.9771	-0.175568	-0.175236	-0.00801676	2	-2.84654e-05	1.40482e-06
2	0	0	1	1	14.0571	-0.183564	-0.183235	-0.00928839	2	-2.91587e-05	1.70196e-06
2	0	0	0	1	14.1681	-0.19466	-0.194296	-0.0105902	2	-3.02771e-05	2.05763e-06
2	0	0	0	1	14.2481	-0.202657	-0.2023	-0.0115663	2	-3.11853e-05	2.33987e-06
2	0	0	0	1	14.3281	-0.210653	-0.210294	-0.0121924	2	-3.21575e-05	2.56399e-06
2	0	0	0	1	14.4081	-0.21865	-0.218311	-0.0126545	2	-3.31737e-05	2.76263e-06
2	0	0	1	1	14.4879	-0.226647	-0.226299	-0.0129023	2	-3.42148e-05	2.91979e-06
2	0	0	1	1	14.5679	-0.234644	-0.234289	-0.0129606	2	-3.52709e-05	3.03651e-06
2	0	0	1	1	14.6479	-0.24264	-0.242302	-0.0129835	2	-3.63296e-05	3.14593e-06
2	0	0	1	1	14.7279	-0.250637	-0.250275	-0.0128881	2	-3.7384e-05	3.22556e-06
2	0	0	1	1	14.8079	-0.258634	-0.258285	-0.0127272	2	-3.84296e-05	3.28724e-06
2	0	0	1	1	14.8879	-0.26663	-0.26627	-0.0126057	2	-3.94636e-05	3.35652e-06
2	0	0	0	1	14.9677	-0.274627	-0.274289	-0.0124447	2	-4.04842e-05	3.41345e-06
2	0	0	0	1	15.0477	-0.282624	-0.282271	-0.0123209	2	-4.14949e-05	3.47784e-06
2	0	0	0	1	15.1277	-0.290621	-0.290268	-0.0121965	2	-4.2495e-05	3.54026e-06
2	0	0	0	1	15.2077	-0.298617	-0.298273	-0.0120954	2	-4.34862e-05	3.60772e-06
2	0	0	0	1	15.2877	-0.306614	-0.30627	-0.0119876	2	-4.44702e-05	3.67146e-06
2	0	0	0	1	15.3677	-0.314611	-0.314264	-0.0119396	2	-4.54487e-05	3.75219e-06
2	0	0	1	1	15.4475	-0.322607	-0.322258	-0.0119456	2	-4.64224e-05	3.84957e-06
2	0	0	1	1	15.5275	-0.330604	-0.330246	-0.0118957	2	-4.73973e-05	3.92851e-06
2	0	0	1	1	15.6075	-0.338601	-0.338234	-0.0119364	2	-4.83732e-05	4.03728e-06
2	0	0	1	1	15.6875	-0.346598	-0.346243	-0.0120271	2	-4.93526e-05	4.16428e-06
2	0	0	1	1	15.7675	-0.354594	-0.354252	-0.0121319	2	-5.03378e-05	4.29775e-06
2	0	0	1	1	15.8475	-0.362591	-0.362242	-0.0122349	2	-5.13305e-05	4.43198e-06
2	0	0	0	1	15.9273	-0.370588	-0.370237	-0.0123408	2	-5.23311e-05	4.56903e-06
2	0	0	0	1	16.0073	-0.378584	-0.378235	-0.0125178	2	-5.33461e-05	4.73466e-06
[...]
2	0	0	0	1	16.1673	-0.394578	-0.394211	-0.0129009	2	-5.54208e-05	5.08567e-06
2	1	0	0	0	16.2277	-0.399376	-0.398981	-0.0106684	2	-5.62057e-05	4.25651e-06
2	1	0	0	0	16.3077	-0.391379	-0.390972	-0.00828058	2	-5.69149e-05	3.23747e-06
2	1	0	0	0	16.3877	-0.383382	-0.382989	-0.00725638	2	-5.75123e-05	2.77911e-06
2	1	0	0	0	16.4677	-0.375386	-0.374985	-0.00647133	2	-5.80394e-05	2.42665e-06
2	1	0	0	0	16.5476	-0.367396	-0.366981	-0.00582581	2	-5.85089e-05	2.13796e-06
2	1	0	1	0	16.6275	-0.359392	-0.358986	-0.00526679	2	-5.89297e-05	1.8907e-06
2	1	0	0	0	16.7385	-0.348297	-0.347899	-0.00432739	2	-5.945e-05	1.50549e-06
2	1	0	0	0	16.8185	-0.3403	-0.339866	-0.00386443	2	-5.97773e-05	1.31339e-06
2	1	0	0	0	16.8985	-0.332303	-0.331892	-0.00347801	2	-6.00704e-05	1.15432e-06
2	1	0	0	0	16.9785	-0.324307	-0.323892	-0.00306965	2	-6.03312e-05	9.94233e-07
2	1	0	1	0	17.0583	-0.31631	-0.315906	-0.00269237	2	-6.05607e-05	8.50533e-07
2	1	0	1	0	17.1383	-0.308313	-0.307905	-0.00234461	2	-6.07619e-05	7.21918e-07
2	1	0	1	0	17.2183	-0.300317	-0.29991	-0.00201393	2	-6.09357e-05	6.03997e-07
2	1	0	1	0	17.2983	-0.29232	-0.291898	-0.00166047	2	-6.10822e-05	4.84689e-07
2	1	0	1	0	17.3783	-0.284323	-0.283899	-0.00134326	2	-6.1202e-05	3.8135e-07
2	1	0	1	0	17.4583	-0.276326	-0.275913	-0.00100179	2	-6.12947e-05	2.76407e-07
2	1	0	0	0	17.5381	-0.26833	-0.267926	-0.000617074	2	-6.13587e-05	1.6533e-07
2	1	0	0	0	17.6181	-0.260333	-0.259915	-0.00022016	2	-6.13923e-05	5.7223e-08
2	1	0	0	0	17.6981	-0.252336	-0.251919	0.000229183	2	-6.1392e-05	5.77355e-08
2	1	0	0	0	17.7781	-0.24434	-0.243906	0.000765837	2	-6.13525e-05	1.86792e-07
2	1	0	0	0	17.8581	-0.236343	-0.235901	0.00139657	2	-6.1266e-05	3.29451e-07
2	1	0	0	0	17.9381	-0.228346	-0.227938	0.00217937	2	-6.11231e-05	4.9676e-07
2	1	0	1	0	18.0179	-0.220349	-0.219933	0.00317844	2	-6.09105e-05	6.99042e-07
2	1	0	1	0	18.0979	-0.212353	-0.21192	0.00431646	2	-6.06119e-05	9.14743e-07
2	1	0	1	0	18.1779	-0.204356	-0.203923	0.00564387	2	-6.02145e-05	1.15091e-06
2	1	0	1	0	18.2579	-0.196359	-0.195916	0.00705196	2	-5.97065e-05	1.38159e-06
2	1	0	1	0	18.3379	-0.188363	-0.187906	0.00838396	2	-5.90876e-05	1.5754e-06
2	1	0	1	0	18.4179	-0.180366	-0.179883	0.00948112	2	-5.83702e-05	1.70549e-06
2	1	0	1	0	18.5133	-0.170812	-0.170344	0.0101174	2	-5.74206e-05	1.72344e-06
2	1	0	1	0	18.6087	-0.161274	-0.160802	0.0102327	2	-5.6425e-05	1.64544e-06
2	1	0	1	0	18.6887	-0.153277	-0.152824	0.00996754	2	-5.55954e-05	1.52328e-06
2	1	0	1	0	18.7687	-0.14528	-0.144813	0.00945671	2	-5.47969e-05	1.36946e-06
2	1	0	1	0	18.8487	-0.137283	-0.136823	0.00883225	2	-5.40427e-05	1.20846e-06
2	1	0	1	0	18.9287	-0.129287	-0.128825	0.00824423	2	-5.33371e-05	1.06206e-06
2	1	0	0	0	19.0085	-0.12129	-0.12084	0.00770747	2	-5.26799e-05	9.31373e-07
2	1	0	0	0	19.0885	-0.113293	-0.112843	0.00720552	2	-5.20637e-05	8.13092e-07
2	1	0	0	0	19.1685	-0.105297	-0.10484	0.00676772	2	-5.14849e-05	7.09528e-07
2	1	0	0	0	19.2485	-0.0972999	-0.0968381	0.00642971	2	-5.09372e-05	6.22641e-07
2	1	0	0	0	19.3285	-0.0893032	-0.0888418	0.00616655	2	-5.0416e-05	5.47847e-07
2	1	0	0	0	19.4085	-0.0813065	-0.0808297	0.00585441	2	-4.99168e-05	4.7321e-07
2	1	0	1	0	19.4883	-0.0733097	-0.0728474	0.00565067	2	-4.94371e-05	4.11637e-07
2	1	0	1	0	19.5683	-0.065313	-0.0648395	0.00543835	2	-4.89716e-05	3.5262e-07
2	1	0	1	0	19.6483	-0.0573163	-0.0568593	0.00530656	2	-4.85185e-05	3.01728e-07
2	1	0	1	0	19.7283	-0.0493196	-0.0488586	0.00519047	2	-4.80763e-05	2.53599e-07
2	1	0	1	0	19.8083	-0.0413229	-0.0408725	0.00510203	2	-4.76426e-05	2.08533e-07
2	1	0	1	0	19.8883	-0.0333262	-0.0328619	0.00504498	2	-4.72158e-05	1.65787e-07
2	1	0	0	0	19.9636	-0.0257793	-0.0253012	0.00493031	2	-4.68193e-05	1.24743e-07