Folder: CV/TAP_Report/Data/MB_SHU

File: 100 uM MB 10mM PB Second ITO_01_CV_C01_2.mpt
EC-Lab ASCII FILE
Nb header lines : 53

Cyclic Voltammetry

Run on channel : 1 (SN 0696)
User :
Electrode connection : standard
Ewe ctrl range : min = -10.00 V, max = 10.00 V
Ewe,I filtering : 50 kHz
Channel : Grounded
Acquisition started on : 05/17/2017 12:14:48
Saved on :
	File : 100 uM MB 10mM PB Second ITO_01_CV_C01.mpr
	Directory : \\userfs\st659\w2k\EC-Lab\Data\ITO Characterisation 17-5-17\
	Host : 144.32.136.43
Device : SP-300 (SN 0182)
Address : USB
EC-Lab for windows v10.44 (software)
Internet server v10.44 (firmware)
Command interpretor v10.44 (firmware)
Electrode material :
Initial state :
Electrolyte :
Comments :
Cable : standard
Electrode surface area : 0.001 cm²
Characteristic mass : 0.001 g
Equivalent Weight : 0.000 g/eq.
Density : 0.000 g/cm3
Ei (V)              0.000
vs.                 Eoc
dE/dt               20.000
dE/dt unit          mV/s
E1 (V)              0.100
vs.                 Ref
Step percent        50
N                   10
E range min (V)     -10.000
E range max (V)     10.000
I Range             Auto
I Range min         Unset
I Range max         Unset
I Range init        Unset
Bandwidth           8
E2 (V)              -0.600
vs.                 Ref
nc cycles           2
Reverse Scan        1
Ef (V)              0.000
vs.                 Eoc

mode	ox/red	error	control changes	counter inc.	time/s	control/V	Ewe/V	<I>/mA	cycle number	(Q-Qo)/C	P/W
2	1	0	1	1	51.2478	-0.599827	-0.600062	-0.00388903	2	-8.20572e-05	2.33366e-06
2	1	0	0	1	51.8393	-0.587998	-0.588205	-0.00350508	2	-8.42163e-05	2.06171e-06
2	1	0	0	1	52.5057	-0.57467	-0.574875	-0.00322166	2	-8.64403e-05	1.85205e-06
2	1	0	0	1	53.1721	-0.561342	-0.561532	-0.00299871	2	-8.84978e-05	1.68387e-06
2	1	0	0	1	53.8386	-0.548012	-0.548202	-0.00281524	2	-9.04225e-05	1.54332e-06
2	1	0	0	1	54.505	-0.534684	-0.534886	-0.00265116	2	-9.22305e-05	1.41807e-06
2	1	0	0	1	55.1714	-0.521356	-0.521568	-0.00250929	2	-9.39369e-05	1.30877e-06
2	1	0	0	1	55.8378	-0.508028	-0.508244	-0.00238352	2	-9.55548e-05	1.21141e-06
2	1	0	0	1	56.5042	-0.4947	-0.494897	-0.0022679	2	-9.70924e-05	1.12238e-06
2	1	0	0	1	57.1706	-0.481372	-0.481593	-0.00216395	2	-9.85572e-05	1.04214e-06
2	1	0	0	1	57.837	-0.468044	-0.46824	-0.00207007	2	-9.99562e-05	9.6929e-07
2	1	0	0	1	58.5034	-0.454716	-0.454897	-0.00198082	2	-0.000101294	9.01068e-07
2	1	0	0	1	59.1698	-0.441388	-0.441581	-0.0018993	2	-0.000102575	8.38694e-07
2	1	0	0	1	59.8362	-0.42806	-0.428265	-0.0018231	2	-0.000103803	7.80771e-07
2	1	0	0	1	60.5026	-0.414732	-0.414948	-0.00175164	2	-0.000104983	7.26841e-07
2	1	0	1	1	61.1691	-0.401402	-0.401633	-0.00168836	2	-0.000106117	6.78099e-07
2	1	0	1	1	61.8355	-0.388074	-0.38829	-0.00162797	2	-0.000107211	6.32125e-07
2	1	0	1	1	62.5019	-0.374746	-0.374949	-0.0015709	2	-0.000108265	5.89009e-07
2	1	0	1	1	63.1683	-0.361418	-0.361641	-0.00152032	2	-0.000109283	5.49812e-07
2	1	0	1	1	63.8347	-0.34809	-0.348302	-0.00147017	2	-0.000110268	5.12063e-07
2	1	0	1	1	64.5012	-0.33476	-0.334948	-0.0014233	2	-0.000111222	4.76731e-07
2	1	0	1	1	65.1676	-0.321432	-0.321626	-0.00137641	2	-0.000112143	4.4269e-07
2	1	0	1	1	65.834	-0.308104	-0.308302	-0.00133002	2	-0.000113033	4.10047e-07
2	1	0	1	1	66.5004	-0.294776	-0.294944	-0.00128336	2	-0.000113893	3.78518e-07
2	1	0	1	1	67.1668	-0.281448	-0.281616	-0.00123221	2	-0.000114719	3.47011e-07
2	1	0	1	1	67.8332	-0.26812	-0.26831	-0.00117512	2	-0.000115509	3.15295e-07
2	1	0	1	1	68.4996	-0.254792	-0.255003	-0.00111249	2	-0.00011626	2.83688e-07
2	1	0	1	1	69.166	-0.241464	-0.241659	-0.0010345	2	-0.000116963	2.49996e-07
2	1	0	1	1	69.8324	-0.228136	-0.228346	-0.000931564	2	-0.000117605	2.12719e-07
2	1	0	1	1	70.4988	-0.214808	-0.215006	-0.00077822	2	-0.000118163	1.67322e-07
2	1	0	1	1	71.1652	-0.20148	-0.201667	-0.000539451	2	-0.00011859	1.0879e-07
2	1	0	0	1	71.865	-0.187484	-0.187688	-0.000187258	2	-0.000118828	3.51461e-08
2	1	0	0	1	72.5314	-0.174156	-0.174356	0.000144137	2	-0.000118818	2.51311e-08
2	1	0	0	1	73.1978	-0.160828	-0.161006	0.000306047	2	-0.00011864	4.92753e-08
2	1	0	0	1	73.8642	-0.1475	-0.147669	0.000290806	2	-0.000118418	4.29432e-08
2	1	0	0	1	74.5306	-0.134172	-0.134333	0.00020983	2	-0.000118234	2.81872e-08
2	1	0	0	1	75.197	-0.120844	-0.121005	0.000128842	2	-0.000118108	1.55906e-08
2	1	0	0	1	75.8634	-0.107516	-0.107654	6.72737e-05	2	-0.00011803	7.24227e-09
2	1	0	1	1	76.5299	-0.0941861	-0.0943602	2.20148e-05	2	-0.000117988	2.07732e-09
2	1	0	1	1	77.1963	-0.0808583	-0.0810426	-1.11145e-05	2	-0.000117973	9.00751e-10
2	1	0	1	1	77.8627	-0.06753	-0.0677062	-3.706e-05	2	-0.000117978	2.50919e-09
2	1	0	1	1	78.5291	-0.0542022	-0.054396	-5.79981e-05	2	-0.000118	3.15486e-09
2	1	0	1	1	79.1956	-0.0408722	-0.0410684	-7.53256e-05	2	-0.000118034	3.0935e-09
2	1	0	1	1	79.862	-0.0275439	-0.027699	-8.81302e-05	2	-0.000118078	2.44111e-09
2	1	0	1	1	80.5284	-0.0142161	-0.0143957	-9.8688e-05	2	-0.00011813	1.42069e-09
2	1	0	1	1	81.1948	-0.000875546	-0.00106513	-0.000105255	2	-0.000118188	1.1211e-10
2	1	0	1	1	81.8612	0.0124399	0.0122966	-0.000109294	2	-0.00011825	1.34395e-09
2	1	0	1	1	82.5276	0.0257677	0.0256148	-0.000111383	2	-0.000118314	2.85304e-09
2	1	0	1	1	83.194	0.039096	0.0389687	-0.000111261	2	-0.000118378	4.33571e-09
2	1	0	1	1	83.8604	0.0524238	0.0523229	-0.000109074	2	-0.000118442	5.70706e-09
2	1	0	1	1	84.5268	0.0657516	0.0656403	-0.000105546	2	-0.000118504	6.92808e-09
2	1	0	1	1	85.1932	0.0790798	0.0789516	-0.000100322	2	-0.000118563	7.9206e-09
2	1	0	1	1	85.8596	0.0924076	0.0922582	-9.37912e-05	2	-0.000118618	8.65301e-09
2	0	0	0	1	86.3266	0.098073	0.0979388	-0.000129023	2	-0.00011866	1.26364e-08
2	0	0	0	1	86.993	0.0847452	0.0846203	-0.000249726	2	-0.000118801	2.11319e-08
2	0	0	0	1	87.6594	0.071417	0.0712795	-0.000330893	2	-0.000119005	2.35859e-08
2	0	0	0	1	88.3258	0.0580892	0.0579826	-0.000395491	2	-0.000119258	2.29316e-08
2	0	0	0	1	88.9922	0.0447609	0.0446251	-0.000450842	2	-0.00011955	2.01189e-08
2	0	0	0	1	89.6586	0.0314331	0.0312794	-0.000498838	2	-0.000119877	1.56034e-08
2	0	0	0	1	90.325	0.0181053	0.0179471	-0.000541246	2	-0.000120234	9.7138e-09
2	0	0	0	1	90.9914	0.00477706	0.00461396	-0.000580092	2	-0.000120618	2.67652e-09
2	0	0	1	1	91.6579	-0.00855297	-0.00873882	-0.000616265	2	-0.000121026	5.38543e-09
2	0	0	1	1	92.3243	-0.0218808	-0.0220529	-0.000649548	2	-0.000121459	1.43244e-08
2	0	0	1	1	92.9907	-0.035209	-0.0353814	-0.000681529	2	-0.000121913	2.41134e-08
2	0	0	1	1	93.6571	-0.0485368	-0.048716	-0.000711566	2	-0.000122388	3.46647e-08
2	0	0	1	1	94.3236	-0.0618669	-0.0620757	-0.000741867	2	-0.000122883	4.60519e-08
2	0	0	1	1	94.99	-0.0751951	-0.0753892	-0.000772104	2	-0.000123398	5.82083e-08
2	0	0	1	1	95.6564	-0.0885229	-0.0887116	-0.000802982	2	-0.000123934	7.12338e-08
2	0	0	1	1	96.3228	-0.101851	-0.102021	-0.000838732	2	-0.000124493	8.55683e-08
2	0	0	1	1	96.9892	-0.115179	-0.115339	-0.000882189	2	-0.000125079	1.01751e-07
2	0	0	0	1	97.6889	-0.129173	-0.129333	-0.000943592	2	-0.000125734	1.22037e-07
2	0	0	0	1	98.3553	-0.142501	-0.142663	-0.00103624	2	-0.000126407	1.47834e-07
2	0	0	0	1	99.0218	-0.155831	-0.155994	-0.0011909	2	-0.000127162	1.85773e-07
2	0	0	0	1	99.6882	-0.169159	-0.169344	-0.00144461	2	-0.000128054	2.44636e-07
2	0	0	0	1	100.355	-0.182487	-0.182682	-0.00179845	2	-0.000129151	3.28546e-07
2	0	0	0	1	101.021	-0.195815	-0.195999	-0.00213056	2	-0.000130488	4.17587e-07
2	0	0	0	1	101.687	-0.209143	-0.209316	-0.00227638	2	-0.000131989	4.76483e-07
2	0	0	0	1	102.354	-0.222471	-0.222683	-0.00225473	2	-0.000133524	5.0209e-07
2	0	0	0	1	103.02	-0.235799	-0.235986	-0.00218152	2	-0.000135021	5.14808e-07
2	0	0	0	1	103.687	-0.249127	-0.249314	-0.00211756	2	-0.00013647	5.27936e-07
2	0	0	0	1	104.353	-0.262455	-0.262626	-0.00207072	2	-0.000137881	5.43824e-07
2	0	0	0	1	105.019	-0.275783	-0.27596	-0.00203807	2	-0.000139265	5.62427e-07
2	0	0	0	1	105.686	-0.289111	-0.289288	-0.00201992	2	-0.000140632	5.8434e-07
2	0	0	1	1	106.352	-0.302441	-0.302631	-0.002012	2	-0.000141989	6.08894e-07
2	0	0	1	1	107.019	-0.315769	-0.315971	-0.00201214	2	-0.000143344	6.35779e-07
2	0	0	1	1	107.685	-0.329097	-0.329292	-0.00202047	2	-0.000144701	6.65326e-07
2	0	0	1	1	108.351	-0.342425	-0.342653	-0.00203491	2	-0.000146066	6.97269e-07
2	0	0	1	1	109.018	-0.355753	-0.355972	-0.00205628	2	-0.000147443	7.31976e-07
2	0	0	1	1	109.684	-0.369083	-0.369294	-0.00208461	2	-0.000148837	7.69833e-07
2	0	0	1	1	110.351	-0.382411	-0.382644	-0.00211908	2	-0.000150251	8.10853e-07
2	0	0	1	1	111.017	-0.395739	-0.395961	-0.00216106	2	-0.000151691	8.55695e-07
2	0	0	1	1	111.684	-0.409067	-0.40927	-0.00221032	2	-0.000153161	9.04619e-07
2	0	0	1	1	112.35	-0.422395	-0.422624	-0.00226594	2	-0.000154667	9.57641e-07
2	0	0	1	1	113.016	-0.435723	-0.43591	-0.00232975	2	-0.000156212	1.01556e-06
2	0	0	1	1	113.683	-0.449051	-0.449243	-0.00240694	2	-0.000157804	1.0813e-06
2	0	0	1	1	114.349	-0.462379	-0.462563	-0.00249125	2	-0.00015945	1.15236e-06
2	0	0	1	1	115.016	-0.475707	-0.475901	-0.00258328	2	-0.000161155	1.22938e-06
2	0	0	1	1	115.682	-0.489035	-0.48925	-0.00267946	2	-0.000162923	1.31093e-06
2	0	0	1	1	116.348	-0.502363	-0.502574	-0.00278295	2	-0.000164758	1.39864e-06
2	0	0	0	1	117.015	-0.515693	-0.515917	-0.00289295	2	-0.000166664	1.49252e-06
2	0	0	0	1	117.681	-0.529021	-0.52924	-0.00301596	2	-0.000168648	1.59617e-06
2	0	0	0	1	118.348	-0.542349	-0.542557	-0.00314523	2	-0.000170715	1.70647e-06
2	0	0	0	1	119.014	-0.555677	-0.555885	-0.00328284	2	-0.000172872	1.82488e-06
2	0	0	0	1	119.68	-0.569005	-0.569215	-0.00342995	2	-0.000175124	1.95238e-06
2	0	0	0	1	120.347	-0.582335	-0.582527	-0.00358439	2	-0.000177477	2.08801e-06
2	0	0	0	1	121.013	-0.595663	-0.595865	-0.00374548	2	-0.000179935	2.2318e-06
2	0	0	0	1	121.222	-0.60016	-0.600363	-0.00395194	2	-0.000180726	2.3726e-06

File: 100 uM MB 10mM PB Second ITO_02_CV_C01_2.mpt
EC-Lab ASCII FILE
Nb header lines : 53

Cyclic Voltammetry

Run on channel : 1 (SN 0696)
User :
Electrode connection : standard
Ewe ctrl range : min = -10.00 V, max = 10.00 V
Ewe,I filtering : 50 kHz
Channel : Grounded
Acquisition started on : 05/17/2017 12:14:48
Saved on :
	File : 100 uM MB 10mM PB Second ITO_02_CV_C01.mpr
	Directory : \\userfs\st659\w2k\EC-Lab\Data\ITO Characterisation 17-5-17\
	Host : 144.32.136.43
Device : SP-300 (SN 0182)
Address : USB
EC-Lab for windows v10.44 (software)
Internet server v10.44 (firmware)
Command interpretor v10.44 (firmware)
Electrode material :
Initial state :
Electrolyte :
Comments :
Cable : standard
Electrode surface area : 0.001 cm²
Characteristic mass : 0.001 g
Equivalent Weight : 0.000 g/eq.
Density : 0.000 g/cm3
Ei (V)              0.000
vs.                 Eoc
dE/dt               50.000
dE/dt unit          mV/s
E1 (V)              0.100
vs.                 Ref
Step percent        50
N                   10
E range min (V)     -10.000
E range max (V)     10.000
I Range             Auto
I Range min         Unset
I Range max         Unset
I Range init        Unset
Bandwidth           8
E2 (V)              -0.600
vs.                 Ref
nc cycles           2
Reverse Scan        1
Ef (V)              0.000
vs.                 Eoc

mode	ox/red	error	control changes	counter inc.	time/s	control/V	Ewe/V	<I>/mA	cycle number	(Q-Qo)/C	P/W
2	1	0	1	1	263.052	-0.60016	-0.600333	-0.00498894	2	-4.06146e-05	2.99502e-06
2	1	0	0	1	263.288	-0.588334	-0.588535	-0.00422713	2	-4.16605e-05	2.48782e-06
2	1	0	1	1	263.555	-0.575003	-0.575223	-0.00383196	2	-4.27193e-05	2.20423e-06
2	1	0	0	1	263.822	-0.561673	-0.561887	-0.00352399	2	-4.36857e-05	1.98008e-06
2	1	0	1	1	264.088	-0.548343	-0.548564	-0.00327069	2	-4.45779e-05	1.79418e-06
2	1	0	0	1	264.355	-0.535017	-0.535214	-0.00305773	2	-4.54081e-05	1.63654e-06
2	1	0	0	1	264.621	-0.521694	-0.521916	-0.00287493	2	-4.61857e-05	1.50047e-06
2	1	0	1	1	264.888	-0.508362	-0.508558	-0.00271354	2	-4.69178e-05	1.37999e-06
2	1	0	0	1	265.154	-0.495034	-0.495235	-0.00257348	2	-4.76099e-05	1.27448e-06
2	1	0	1	1	265.421	-0.481702	-0.481941	-0.00244259	2	-4.8266e-05	1.17719e-06
2	1	0	0	1	265.688	-0.468374	-0.468567	-0.00232679	2	-4.88894e-05	1.09025e-06
2	1	0	0	1	265.954	-0.455052	-0.455229	-0.00221999	2	-4.94826e-05	1.0106e-06
2	1	0	1	1	266.221	-0.441724	-0.441919	-0.00212036	2	-5.00489e-05	9.37029e-07
2	1	0	0	1	266.487	-0.428392	-0.428572	-0.00203034	2	-5.05898e-05	8.70145e-07
2	1	0	1	1	266.754	-0.415064	-0.415253	-0.00194475	2	-5.11075e-05	8.07565e-07
2	1	0	0	1	267.02	-0.401733	-0.401949	-0.00186333	2	-5.16028e-05	7.48966e-07
2	1	0	1	1	267.287	-0.388409	-0.388627	-0.00178478	2	-5.20769e-05	6.93612e-07
2	1	0	1	1	267.553	-0.375083	-0.375265	-0.00171151	2	-5.25307e-05	6.42269e-07
2	1	0	0	1	267.82	-0.361753	-0.361941	-0.00164188	2	-5.29657e-05	5.94264e-07
2	1	0	1	1	268.087	-0.348423	-0.348614	-0.00157345	2	-5.33825e-05	5.48527e-07
2	1	0	0	1	268.353	-0.335094	-0.335281	-0.00150785	2	-5.37812e-05	5.05553e-07
2	1	0	1	1	268.62	-0.321763	-0.321938	-0.00144211	2	-5.41624e-05	4.64268e-07
2	1	0	0	1	268.886	-0.308438	-0.30862	-0.0013742	2	-5.45259e-05	4.24106e-07
2	1	0	0	1	269.153	-0.295113	-0.29526	-0.00130301	2	-5.48708e-05	3.84726e-07
2	1	0	1	1	269.419	-0.281783	-0.281928	-0.00122945	2	-5.51965e-05	3.46617e-07
2	1	0	0	1	269.686	-0.268453	-0.268631	-0.00114719	2	-5.55014e-05	3.0817e-07
2	1	0	1	1	269.953	-0.255122	-0.255296	-0.00104998	2	-5.57823e-05	2.68054e-07
2	1	0	0	1	270.219	-0.241794	-0.241965	-0.000924564	2	-5.60338e-05	2.23712e-07
2	1	0	1	1	270.486	-0.228468	-0.228649	-0.000761659	2	-5.62471e-05	1.74153e-07
2	1	0	1	1	270.769	-0.214309	-0.214494	-0.000513095	2	-5.64161e-05	1.10056e-07
2	1	0	1	1	271.052	-0.200143	-0.200283	-0.00014093	2	-5.65014e-05	2.82258e-08
2	1	0	0	1	271.319	-0.186819	-0.18696	0.000299733	2	-5.64731e-05	5.60381e-08
2	1	0	0	1	271.585	-0.173493	-0.173627	0.000737109	2	-5.6324e-05	1.27982e-07
2	1	0	0	1	271.885	-0.158492	-0.158632	0.00100159	2	-5.60424e-05	1.58884e-07
2	1	0	1	1	272.152	-0.145164	-0.145314	0.000999053	2	-5.57594e-05	1.45177e-07
2	1	0	1	1	272.418	-0.131842	-0.13198	0.000868633	2	-5.54973e-05	1.14642e-07
2	1	0	0	1	272.685	-0.118514	-0.118613	0.000717561	2	-5.52743e-05	8.5112e-08
2	1	0	1	1	272.951	-0.105182	-0.105281	0.00059165	2	-5.50889e-05	6.22894e-08
2	1	0	0	1	273.218	-0.0918541	-0.0919565	0.000497837	2	-5.49329e-05	4.57793e-08
2	1	0	1	1	273.501	-0.0776943	-0.0778359	0.00042557	2	-5.47905e-05	3.31246e-08
2	1	0	0	1	273.784	-0.0635327	-0.0636568	0.000376341	2	-5.46658e-05	2.39566e-08
2	1	0	1	1	274.051	-0.0502033	-0.050328	0.000339909	2	-5.4561e-05	1.71069e-08
2	1	0	0	1	274.318	-0.0368728	-0.036993	0.000311247	2	-5.44647e-05	1.1514e-08
2	1	0	1	1	274.584	-0.0235435	-0.0236653	0.000289104	2	-5.4375e-05	6.84175e-09
2	1	0	0	1	274.851	-0.0102174	-0.0103469	0.000271873	2	-5.42905e-05	2.81305e-09
2	1	0	0	1	275.117	0.00310637	0.00299518	0.000258715	2	-5.421e-05	7.74898e-10
2	1	0	1	1	275.384	0.0164379	0.0163654	0.000248167	2	-5.41324e-05	4.06134e-09
2	1	0	0	1	275.65	0.0297662	0.0296663	0.000240713	2	-5.40573e-05	7.14105e-09
2	1	0	1	1	275.917	0.0430978	0.0429876	0.000235974	2	-5.39838e-05	1.01439e-08
2	1	0	0	1	276.184	0.056426	0.0563435	0.000232931	2	-5.39112e-05	1.31242e-08
2	1	0	0	1	276.45	0.0697476	0.0696595	0.000231223	2	-5.38393e-05	1.61069e-08
2	1	0	1	1	276.717	0.0830758	0.0829757	0.000231976	2	-5.37675e-05	1.92484e-08
2	1	0	0	1	276.983	0.0964074	0.0962977	0.000233093	2	-5.36955e-05	2.24463e-08
2	0	0	1	1	277.157	0.0947403	0.0946275	7.7143e-05	2	-5.36678e-05	7.29985e-09
2	0	0	0	1	277.424	0.0814098	0.0812949	-7.97315e-05	2	-5.368e-05	6.48177e-09
2	0	0	1	1	277.69	0.0680849	0.0679752	-0.000196453	2	-5.37274e-05	1.33539e-08
2	0	0	1	1	277.957	0.05476	0.0546598	-0.000296573	2	-5.38036e-05	1.62106e-08
2	0	0	0	1	278.223	0.0414306	0.0413016	-0.000383588	2	-5.39047e-05	1.58428e-08
2	0	0	1	1	278.49	0.0281002	0.0279609	-0.000462125	2	-5.40277e-05	1.29214e-08
2	0	0	0	1	278.756	0.0147697	0.0146423	-0.000532755	2	-5.41706e-05	7.80074e-09
2	0	0	1	1	279.023	0.00144034	0.00125864	-0.000599908	2	-5.43318e-05	7.55067e-10
2	0	0	0	1	279.289	-0.0118857	-0.012058	-0.000661109	2	-5.45099e-05	7.97166e-09
2	0	0	0	1	279.556	-0.0252095	-0.0253958	-0.000718963	2	-5.47038e-05	1.82587e-08
2	0	0	1	1	279.823	-0.0385411	-0.0387121	-0.000774612	2	-5.49129e-05	2.99868e-08
2	0	0	0	1	280.089	-0.0518693	-0.0520925	-0.00082862	2	-5.51368e-05	4.31648e-08
2	0	0	1	1	280.356	-0.0652009	-0.065391	-0.000882393	2	-5.53748e-05	5.77006e-08
2	0	0	0	1	280.656	-0.0801897	-0.0803534	-0.00093512	2	-5.56613e-05	7.514e-08
2	0	0	1	1	280.922	-0.0935201	-0.0936597	-0.000993427	2	-5.59296e-05	9.30441e-08
2	0	0	0	1	281.189	-0.106849	-0.106999	-0.00105832	2	-5.62143e-05	1.13238e-07
2	0	0	1	1	281.455	-0.12018	-0.120324	-0.00113947	2	-5.65185e-05	1.37106e-07
2	0	0	0	1	281.722	-0.133505	-0.133652	-0.00125184	2	-5.68484e-05	1.67311e-07
2	0	0	0	1	281.988	-0.14683	-0.147012	-0.00141567	2	-5.72145e-05	2.08122e-07
2	0	0	1	1	282.255	-0.16016	-0.160331	-0.00166433	2	-5.76354e-05	2.66844e-07
2	0	0	0	1	282.522	-0.17349	-0.173677	-0.00202885	2	-5.81381e-05	3.52365e-07
2	0	0	1	1	282.788	-0.186821	-0.187026	-0.00249883	2	-5.87534e-05	4.67346e-07
2	0	0	0	1	283.055	-0.20015	-0.200322	-0.00295102	2	-5.94955e-05	5.91156e-07
2	0	0	1	1	283.321	-0.213476	-0.213688	-0.00320418	2	-6.03343e-05	6.84695e-07
2	0	0	1	1	283.588	-0.226799	-0.227011	-0.003221	2	-6.12065e-05	7.31201e-07
2	0	0	0	1	283.854	-0.240131	-0.240313	-0.00311626	2	-6.20643e-05	7.48876e-07
2	0	0	1	1	284.121	-0.253459	-0.253652	-0.00300118	2	-6.28918e-05	7.61255e-07
2	0	0	0	1	284.388	-0.266791	-0.266967	-0.00290227	2	-6.36902e-05	7.74809e-07
2	0	0	1	1	284.654	-0.280119	-0.280277	-0.00282852	2	-6.44656e-05	7.9277e-07
2	0	0	1	1	284.921	-0.293441	-0.293612	-0.00277852	2	-6.52242e-05	8.15807e-07
2	0	0	0	1	285.187	-0.306769	-0.306983	-0.00274647	2	-6.59726e-05	8.43119e-07
2	0	0	1	1	285.454	-0.3201	-0.320292	-0.00273067	2	-6.67146e-05	8.74612e-07
2	0	0	0	1	285.72	-0.33343	-0.333632	-0.00272779	2	-6.7454e-05	9.10076e-07
2	0	0	1	1	285.987	-0.34676	-0.346983	-0.00273439	2	-6.81941e-05	9.48786e-07
2	0	0	0	1	286.253	-0.360084	-0.360312	-0.00274909	2	-6.89368e-05	9.9053e-07
2	0	0	0	1	286.52	-0.37341	-0.373626	-0.00276988	2	-6.96842e-05	1.0349e-06
2	0	0	1	1	286.787	-0.386739	-0.386966	-0.0027975	2	-7.04386e-05	1.08254e-06
2	0	0	0	1	287.053	-0.40007	-0.400302	-0.00282983	2	-7.12008e-05	1.13279e-06
2	0	0	1	1	287.32	-0.4134	-0.413625	-0.00286751	2	-7.19722e-05	1.18607e-06
2	0	0	0	1	287.586	-0.42673	-0.426952	-0.00291099	2	-7.27546e-05	1.24285e-06
2	0	0	1	1	287.853	-0.440056	-0.440274	-0.00296171	2	-7.35492e-05	1.30397e-06
2	0	0	1	1	288.119	-0.45338	-0.453589	-0.00301844	2	-7.43582e-05	1.36913e-06
2	0	0	0	1	288.386	-0.466711	-0.466923	-0.00308592	2	-7.51841e-05	1.44089e-06
2	0	0	1	1	288.653	-0.480039	-0.480265	-0.00316232	2	-7.60291e-05	1.51875e-06
2	0	0	0	1	288.919	-0.493371	-0.493576	-0.00324811	2	-7.68958e-05	1.60319e-06
2	0	0	1	1	289.186	-0.506699	-0.50691	-0.00334871	2	-7.77876e-05	1.6975e-06
2	0	0	1	1	289.452	-0.520021	-0.52023	-0.00346536	2	-7.87074e-05	1.80279e-06
2	0	0	0	1	289.719	-0.533349	-0.533553	-0.00359549	2	-7.96607e-05	1.91838e-06
2	0	0	1	1	289.985	-0.546681	-0.546877	-0.00374609	2	-8.06515e-05	2.04865e-06
2	0	0	0	1	290.252	-0.560009	-0.560239	-0.00391674	2	-8.16852e-05	2.19431e-06
2	0	0	1	1	290.519	-0.573341	-0.573556	-0.00410738	2	-8.27669e-05	2.35581e-06
2	0	0	0	1	290.785	-0.586664	-0.586877	-0.00431703	2	-8.39017e-05	2.53356e-06
2	0	0	0	1	291.032	-0.598991	-0.599187	-0.00452994	2	-8.50034e-05	2.71428e-06
2	0	0	0	1	291.048	-0.599827	-0.600047	-0.00454687	2	-8.50804e-05	2.72834e-06