Folder: CV/TAP_Report/Data/Res_growth

File: blank_1_2.mpt
EC-Lab ASCII FILE
Nb header lines : 54

Cyclic Voltammetry

Run on channel : 1 (SN 0696)
User :
Electrode connection : standard
Ewe ctrl range : min = -2.50 V, max = 2.50 V
Ewe,I filtering : 50 kHz
Channel : Grounded
Acquisition started on : 01/18/2017 14:17:27
Saved on :
	File : blank_1.mpr
	Directory : H:\EC-Lab\Data\Resazurin Bulk 18-1-17\
	Host : 144.32.136.43
Device : SP-300 (SN 0182)
Address : USB
EC-Lab for windows v10.44 (software)
Internet server v10.44 (firmware)
Command interpretor v10.44 (firmware)
Electrode material :
Initial state :
Electrolyte :
Comments :
Cable : standard
Reference electrode : SCE Saturated Calomel Electrode (0.241 V)
Electrode surface area : 0.001 cm²
Characteristic mass : 0.001 g
Equivalent Weight : 0.000 g/eq.
Density : 0.000 g/cm3
Ei (V)              0.000
vs.                 Eoc
dE/dt               100.000
dE/dt unit          mV/s
E1 (V)              0.000
vs.                 Ref
Step percent        50
N                   10
E range min (V)     -2.500
E range max (V)     2.500
I Range             Auto
I Range min         Unset
I Range max         Unset
I Range init        Unset
Bandwidth           8
E2 (V)              -0.900
vs.                 Ref
nc cycles           2
Reverse Scan        1
Ef (V)              0.000
vs.                 Eoc

mode	ox/red	error	control changes	counter inc.	time/s	control/V	Ewe/V	<I>/mA	cycle number	(Q-Qo)/C	P/W
2	1	0	0	1	17.9966	-0.0158287	-0.0165896	0.0157712	2	-0.000973923	2.61638e-07
2	1	0	1	1	18.1321	-0.00228358	-0.0030497	0.0152912	2	-0.000971782	4.66338e-08
2	0	0	0	1	18.2607	-0.0105806	-0.0113855	0.00882637	2	-0.000970331	1.00493e-07
2	0	0	1	1	18.4005	-0.0245756	-0.0253794	0.00609073	2	-0.000969347	1.54579e-07
2	0	0	0	1	18.5715	-0.0416695	-0.0424966	0.00360957	2	-0.000968552	1.53394e-07
2	0	0	0	1	18.7115	-0.0556645	-0.0564793	0.00227966	2	-0.000968145	1.28753e-07
2	0	0	0	1	18.8515	-0.0696595	-0.0704689	0.00120786	2	-0.000967904	8.51166e-08
2	0	0	1	1	18.9913	-0.0836545	-0.0844581	0.000285844	2	-0.000967804	2.41419e-08
2	0	0	1	1	19.1313	-0.0976495	-0.0984562	-0.000575099	2	-0.000967826	5.66221e-08
2	0	0	1	1	19.2713	-0.111644	-0.11246	-0.00138711	2	-0.000967965	1.55994e-07
2	0	0	1	1	19.4113	-0.125639	-0.126479	-0.0022319	2	-0.000968219	2.82288e-07
2	0	0	0	1	19.5511	-0.139634	-0.140449	-0.00314679	2	-0.000968596	4.41964e-07
2	0	0	0	1	19.6911	-0.153629	-0.154464	-0.00419557	2	-0.00096911	6.48064e-07
2	0	0	0	1	19.8311	-0.167625	-0.168453	-0.00542677	2	-0.000969782	9.14157e-07
2	0	0	0	1	19.9711	-0.181619	-0.182444	-0.0069152	2	-0.000970646	1.26164e-06
2	0	0	1	1	20.1109	-0.195614	-0.19647	-0.00876634	2	-0.000971742	1.72232e-06
2	0	0	0	1	20.2819	-0.212708	-0.213524	-0.011214	2	-0.000973464	2.39446e-06
2	0	0	0	1	20.4219	-0.226703	-0.227539	-0.013859	2	-0.000975263	3.15347e-06
2	0	0	1	1	20.5617	-0.240698	-0.241531	-0.0168203	2	-0.000977449	4.06262e-06
2	0	0	1	1	20.7017	-0.254693	-0.255538	-0.0198104	2	-0.000980055	5.06231e-06
2	0	0	1	1	20.8417	-0.268688	-0.269538	-0.0228511	2	-0.000983081	6.15925e-06
2	0	0	1	1	20.9817	-0.282683	-0.283519	-0.0258226	2	-0.000986528	7.32121e-06
2	0	0	0	1	21.1215	-0.296678	-0.297507	-0.0287703	2	-0.000990386	8.55934e-06
2	0	0	0	1	21.2615	-0.310673	-0.311536	-0.0317597	2	-0.000994667	9.89429e-06
2	0	0	0	1	21.4015	-0.324668	-0.325509	-0.0347891	2	-0.000999369	1.13241e-05
2	0	0	0	1	21.5415	-0.338663	-0.339486	-0.0379237	2	-0.0010045	1.28746e-05
2	0	0	1	1	21.6813	-0.352658	-0.353501	-0.0411858	2	-0.00101007	1.45592e-05
2	0	0	1	1	21.8213	-0.366653	-0.367485	-0.0444768	2	-0.00101611	1.63445e-05
2	0	0	1	1	21.9613	-0.380648	-0.381491	-0.0478883	2	-0.00102261	1.82689e-05
2	0	0	1	1	22.1013	-0.394643	-0.395477	-0.0512831	2	-0.0010296	2.02813e-05
2	0	0	0	1	22.2411	-0.408638	-0.4095	-0.0546985	2	-0.00103705	2.2399e-05
2	0	0	0	1	22.3811	-0.422633	-0.423481	-0.0579107	2	-0.00104498	2.45241e-05
2	0	0	0	1	22.5211	-0.436628	-0.437488	-0.0608397	2	-0.00105334	2.66167e-05
2	0	0	0	1	22.6611	-0.450623	-0.451459	-0.0634567	2	-0.00106208	2.86481e-05
2	0	0	1	1	22.8009	-0.464618	-0.465457	-0.0657438	2	-0.00107116	3.06009e-05
2	0	0	1	1	22.9409	-0.478613	-0.479461	-0.0677215	2	-0.00108055	3.24698e-05
2	0	0	1	1	23.0809	-0.492608	-0.493453	-0.0693202	2	-0.00109018	3.42063e-05
2	0	0	1	1	23.2209	-0.506603	-0.50745	-0.0708374	2	-0.00110004	3.59465e-05
2	0	0	0	1	23.3607	-0.520598	-0.521451	-0.0721586	2	-0.00111008	3.76272e-05
2	0	0	0	1	23.5007	-0.534593	-0.535447	-0.0733692	2	-0.0011203	3.92853e-05
2	0	0	0	1	23.6407	-0.548588	-0.54944	-0.0744959	2	-0.00113069	4.09311e-05
2	0	0	0	1	23.7807	-0.562583	-0.563417	-0.0755156	2	-0.00114124	4.25468e-05
2	0	0	1	1	23.9205	-0.576578	-0.577432	-0.0765229	2	-0.00115191	4.41868e-05
2	0	0	1	1	24.0605	-0.590573	-0.59144	-0.0775295	2	-0.00116274	4.58541e-05
2	0	0	1	1	24.2005	-0.604568	-0.605406	-0.0785612	2	-0.0011737	4.75615e-05
2	0	0	1	1	24.3405	-0.618563	-0.619425	-0.0795801	2	-0.00118481	4.92939e-05
2	0	0	0	1	24.4803	-0.632558	-0.633398	-0.0806374	2	-0.00119605	5.10756e-05
2	0	0	0	1	24.6203	-0.646553	-0.647382	-0.081783	2	-0.00120746	5.29448e-05
2	0	0	0	1	24.7603	-0.660548	-0.661409	-0.0829809	2	-0.00121903	5.48843e-05
2	0	0	0	1	24.9003	-0.674543	-0.675409	-0.0843241	2	-0.00123078	5.69533e-05
2	0	0	1	1	25.0401	-0.688538	-0.689415	-0.085784	2	-0.00124271	5.91407e-05
2	0	0	1	1	25.1801	-0.702533	-0.703397	-0.0874382	2	-0.00125488	6.15038e-05
2	0	0	1	1	25.3201	-0.716528	-0.717401	-0.0893424	2	-0.00126729	6.40943e-05
2	0	0	1	1	25.4601	-0.730523	-0.731375	-0.0915759	2	-0.00128	6.69763e-05
2	0	0	0	1	25.5999	-0.744518	-0.745381	-0.0942142	2	-0.00129302	7.02254e-05
2	0	0	0	1	25.7399	-0.758513	-0.759386	-0.0973363	2	-0.00130645	7.39158e-05
2	0	0	0	1	25.8799	-0.772508	-0.77337	-0.101052	2	-0.00132037	7.81505e-05
2	0	0	1	1	26.0509	-0.789602	-0.790431	-0.106291	2	-0.00133813	8.40157e-05
2	0	0	0	1	26.1907	-0.803597	-0.804423	-0.112164	2	-0.00135346	9.02275e-05
2	0	0	0	1	26.3307	-0.817592	-0.818416	-0.119158	2	-0.00136971	9.75209e-05
2	0	0	0	1	26.4707	-0.831587	-0.832418	-0.127612	2	-0.00138705	0.000106226
2	0	0	0	1	26.6107	-0.845582	-0.846398	-0.137882	2	-0.00140569	0.000116703
2	0	0	1	1	26.7505	-0.859577	-0.860412	-0.150147	2	-0.00142588	0.000129188
2	0	0	1	1	26.8905	-0.873572	-0.874425	-0.164696	2	-0.00144796	0.000144015
2	0	0	1	1	27.0305	-0.887567	-0.888396	-0.182036	2	-0.00147227	0.00016172
2	1	0	1	0	27.1609	-0.899463	-0.900283	-0.197313	2	-0.00149727	0.000177637
2	1	0	1	0	27.3009	-0.885468	-0.886303	-0.169629	2	-0.0015227	0.000150343
2	1	0	1	0	27.4409	-0.871473	-0.872289	-0.148704	2	-0.00154486	0.000129713
2	1	0	1	0	27.5809	-0.857478	-0.85831	-0.131292	2	-0.00156435	0.00011269
2	1	0	0	0	27.7207	-0.843483	-0.844297	-0.116624	2	-0.00158158	9.84653e-05
2	1	0	0	0	27.8607	-0.829488	-0.830308	-0.104139	2	-0.00159693	8.64678e-05
2	1	0	0	0	28.0007	-0.815493	-0.816312	-0.0935314	2	-0.00161067	7.63508e-05
2	1	0	0	0	28.1407	-0.801498	-0.802307	-0.0846205	2	-0.00162305	6.78916e-05
2	1	0	1	0	28.2805	-0.787503	-0.788319	-0.077026	2	-0.00163426	6.0721e-05
2	1	0	1	0	28.4205	-0.773508	-0.774321	-0.070646	2	-0.00164451	5.47027e-05
2	1	0	1	0	28.5605	-0.759513	-0.760334	-0.065193	2	-0.00165393	4.95684e-05
2	1	0	1	0	28.7005	-0.745518	-0.746341	-0.060615	2	-0.00166265	4.52394e-05
2	1	0	0	0	28.8403	-0.731523	-0.732338	-0.0567094	2	-0.00167076	4.15305e-05
[...]
2	1	0	0	0	29.2603	-0.689538	-0.690351	-0.0480129	2	-0.00169241	3.31458e-05
2	1	0	0	0	29.4311	-0.672444	-0.673245	-0.0454642	2	-0.0017003	3.06085e-05
2	1	0	0	0	29.5711	-0.658449	-0.659247	-0.043565	2	-0.00170649	2.87201e-05
2	1	0	0	0	29.7111	-0.644454	-0.645248	-0.0417798	2	-0.00171242	2.69583e-05
2	1	0	1	0	29.8509	-0.630459	-0.631271	-0.0401765	2	-0.00171811	2.53623e-05
2	1	0	1	0	29.9909	-0.616464	-0.617274	-0.0386219	2	-0.00172358	2.38403e-05
2	1	0	1	0	30.1309	-0.602469	-0.603269	-0.0370764	2	-0.00172884	2.23671e-05
2	1	0	1	0	30.2709	-0.588474	-0.589272	-0.0355126	2	-0.00173388	2.09266e-05
2	1	0	0	0	30.4107	-0.574479	-0.575279	-0.0339862	2	-0.0017387	1.95516e-05
2	1	0	0	0	30.5507	-0.560484	-0.561277	-0.0325064	2	-0.00174332	1.82451e-05
2	1	0	0	0	30.6907	-0.546489	-0.547274	-0.0309083	2	-0.00174771	1.69153e-05
2	1	0	0	0	30.8307	-0.532494	-0.533292	-0.0293404	2	-0.00175189	1.5647e-05
2	1	0	1	0	30.9705	-0.518499	-0.519292	-0.0277545	2	-0.00175585	1.44127e-05
2	1	0	1	0	31.1105	-0.504504	-0.505286	-0.026092	2	-0.00175957	1.31839e-05
2	1	0	1	0	31.2505	-0.490509	-0.491275	-0.0243956	2	-0.00176307	1.19849e-05
2	1	0	1	0	31.3905	-0.476514	-0.4773	-0.0226107	2	-0.00176632	1.07921e-05
2	1	0	0	0	31.5303	-0.462519	-0.463311	-0.0207232	2	-0.00176931	9.60128e-06
2	1	0	0	0	31.6703	-0.448524	-0.449303	-0.0187762	2	-0.00177203	8.4362e-06
2	1	0	0	0	31.8103	-0.434529	-0.435307	-0.0168183	2	-0.00177449	7.32115e-06
2	1	0	0	0	31.9503	-0.420534	-0.421319	-0.0147152	2	-0.00177665	6.19979e-06
2	1	0	1	0	32.0901	-0.406539	-0.407312	-0.0125841	2	-0.00177852	5.12564e-06
2	1	0	1	0	32.2301	-0.392544	-0.393305	-0.0104912	2	-0.0017801	4.12625e-06
2	1	0	1	0	32.3701	-0.378549	-0.379313	-0.00847285	2	-0.00178138	3.21386e-06
2	1	0	1	0	32.5101	-0.364554	-0.365304	-0.00640056	2	-0.00178238	2.33815e-06
2	1	0	0	0	32.6499	-0.350559	-0.351337	-0.00446077	2	-0.0017831	1.56724e-06
2	1	0	1	0	32.8209	-0.333465	-0.334217	-0.00178478	2	-0.00178362	5.96506e-07
2	1	0	1	0	32.9609	-0.31947	-0.320224	0.000163906	2	-0.00178373	5.24866e-08
2	1	0	1	0	33.1009	-0.305475	-0.306218	0.00220255	2	-0.00178356	6.74459e-07
2	1	0	0	0	33.2407	-0.29148	-0.292202	0.00433427	2	-0.00178311	1.26648e-06
2	1	0	0	0	33.3807	-0.277485	-0.278215	0.00667607	2	-0.00178233	1.85738e-06
2	1	0	0	0	33.5207	-0.26349	-0.264188	0.00929526	2	-0.00178122	2.4557e-06
2	1	0	1	0	33.6917	-0.246396	-0.247161	0.012541	2	-0.00177934	3.09965e-06
2	1	0	0	0	33.8315	-0.232401	-0.233159	0.0156468	2	-0.00177733	3.64819e-06
2	1	0	0	0	33.9715	-0.218406	-0.219167	0.0188632	2	-0.00177487	4.1342e-06
2	1	0	0	0	34.1115	-0.204411	-0.205164	0.021877	2	-0.00177197	4.48838e-06
2	1	0	0	0	34.2515	-0.190416	-0.191141	0.0246052	2	-0.00176867	4.70305e-06
2	1	0	1	0	34.3913	-0.176421	-0.177151	0.0267584	2	-0.00176503	4.74026e-06
2	1	0	1	0	34.5313	-0.162426	-0.163175	0.0283715	2	-0.00176112	4.62952e-06
2	1	0	1	0	34.6713	-0.148431	-0.149165	0.0293641	2	-0.00175702	4.38009e-06
2	1	0	1	0	34.8113	-0.134436	-0.135165	0.0294725	2	-0.00175285	3.98366e-06
2	1	0	0	0	34.9511	-0.120441	-0.121168	0.0289403	2	-0.00174872	3.50664e-06
2	1	0	0	0	35.0911	-0.106446	-0.107186	0.0278381	2	-0.00174469	2.98387e-06
2	1	0	0	0	35.2311	-0.0924513	-0.0931893	0.0263331	2	-0.00174086	2.45397e-06
2	1	0	0	0	35.3711	-0.0784564	-0.0791929	0.0246148	2	-0.00173725	1.94932e-06
2	1	0	1	0	35.5109	-0.0644614	-0.0652022	0.0229498	2	-0.00173388	1.49637e-06
2	1	0	1	0	35.6509	-0.0504664	-0.0512102	0.0214341	2	-0.00173073	1.09765e-06
2	1	0	1	0	35.7909	-0.0364714	-0.0371996	0.020094	2	-0.00172778	7.47488e-07
2	1	0	1	0	35.9309	-0.0224764	-0.0232159	0.0190137	2	-0.00172501	4.41418e-07
2	1	0	0	0	35.9962	-0.0159287	-0.0166849	0.0186668	2	-0.00172376	3.11455e-07

File: blank_2_2.mpt
EC-Lab ASCII FILE
Nb header lines : 54

Cyclic Voltammetry

Run on channel : 1 (SN 0696)
User :
Electrode connection : standard
Ewe ctrl range : min = -2.50 V, max = 2.50 V
Ewe,I filtering : 50 kHz
Channel : Grounded
Acquisition started on : 01/18/2017 14:21:07
Saved on :
	File : blank_2.mpr
	Directory : H:\EC-Lab\Data\Resazurin Bulk 18-1-17\
	Host : 144.32.136.43
Device : SP-300 (SN 0182)
Address : USB
EC-Lab for windows v10.44 (software)
Internet server v10.44 (firmware)
Command interpretor v10.44 (firmware)
Electrode material :
Initial state :
Electrolyte :
Comments :
Cable : standard
Reference electrode : SCE Saturated Calomel Electrode (0.241 V)
Electrode surface area : 0.001 cm²
Characteristic mass : 0.001 g
Equivalent Weight : 0.000 g/eq.
Density : 0.000 g/cm3
Ei (V)              0.000
vs.                 Eoc
dE/dt               100.000
dE/dt unit          mV/s
E1 (V)              0.000
vs.                 Ref
Step percent        50
N                   10
E range min (V)     -2.500
E range max (V)     2.500
I Range             Auto
I Range min         Unset
I Range max         Unset
I Range init        Unset
Bandwidth           8
E2 (V)              -0.900
vs.                 Ref
nc cycles           2
Reverse Scan        1
Ef (V)              0.000
vs.                 Eoc

mode	ox/red	error	control changes	counter inc.	time/s	control/V	Ewe/V	<I>/mA	cycle number	(Q-Qo)/C	P/W
2	1	0	1	1	17.9956	-0.0136295	-0.0140178	0.0139395	2	-0.00104873	1.95402e-07
2	1	0	0	1	18.1286	-0.000334273	-0.000720595	0.0136016	2	-0.00104685	9.80121e-09
2	0	0	1	1	18.2577	-0.0125799	-0.0130345	0.00685817	2	-0.00104574	8.93927e-08
2	0	0	0	1	18.4275	-0.0295738	-0.0300084	0.00391247	2	-0.00104484	1.17407e-07
2	0	0	0	1	18.5675	-0.0435688	-0.0440144	0.0024414	2	-0.0010444	1.07457e-07
2	0	0	0	1	18.7075	-0.0575638	-0.0580048	0.00130262	2	-0.00104415	7.55585e-08
2	0	0	1	1	18.8473	-0.0715588	-0.0720051	0.000343786	2	-0.00104404	2.47543e-08
2	0	0	1	1	18.9873	-0.0855538	-0.0859888	-0.000477821	2	-0.00104405	4.10872e-08
2	0	0	1	1	19.1273	-0.0995488	-0.100008	-0.00125927	2	-0.00104417	1.25936e-07
2	0	0	1	1	19.2673	-0.113544	-0.114017	-0.00203249	2	-0.0010444	2.31739e-07
2	0	0	0	1	19.4071	-0.127539	-0.127991	-0.00282407	2	-0.00104474	3.61456e-07
2	0	0	0	1	19.5471	-0.141534	-0.141984	-0.00368398	2	-0.0010452	5.23064e-07
2	0	0	0	1	19.6871	-0.155529	-0.156009	-0.00467694	2	-0.00104578	7.29644e-07
2	0	0	0	1	19.8271	-0.169524	-0.170008	-0.00580636	2	-0.00104651	9.87129e-07
2	0	0	1	1	19.9669	-0.183519	-0.184006	-0.00715859	2	-0.00104742	1.31722e-06
2	0	0	1	1	20.1069	-0.197514	-0.198008	-0.00876426	2	-0.00104853	1.73539e-06
2	0	0	0	1	20.2779	-0.214608	-0.21509	-0.0108715	2	-0.00105022	2.33835e-06
2	0	0	0	1	20.4179	-0.228603	-0.229088	-0.0132146	2	-0.00105194	3.02729e-06
2	0	0	1	1	20.5577	-0.242598	-0.243075	-0.0157428	2	-0.00105399	3.82668e-06
2	0	0	1	1	20.6977	-0.256593	-0.257071	-0.0184217	2	-0.00105642	4.7357e-06
2	0	0	1	1	20.8377	-0.270588	-0.271078	-0.0211441	2	-0.00105922	5.7317e-06
2	0	0	1	1	20.9777	-0.284583	-0.285063	-0.0238912	2	-0.0010624	6.81052e-06
2	0	0	0	1	21.1175	-0.298578	-0.299043	-0.0267531	2	-0.00106598	8.00033e-06
2	0	0	0	1	21.2575	-0.312573	-0.313061	-0.0297293	2	-0.00106996	9.30708e-06
2	0	0	0	1	21.3975	-0.326568	-0.327064	-0.0327628	2	-0.00107437	1.07155e-05
2	0	0	0	1	21.5375	-0.340563	-0.341037	-0.0360274	2	-0.00107922	1.22867e-05
2	0	0	1	1	21.6773	-0.354558	-0.355047	-0.0393401	2	-0.00108452	1.39676e-05
2	0	0	1	1	21.8173	-0.368553	-0.369038	-0.042702	2	-0.0010903	1.57586e-05
2	0	0	1	1	21.9573	-0.382548	-0.383061	-0.0462844	2	-0.00109656	1.77297e-05
2	0	0	1	1	22.0973	-0.396543	-0.397042	-0.0498073	2	-0.00110332	1.97756e-05
2	0	0	0	1	22.2371	-0.410538	-0.411035	-0.0532405	2	-0.00111056	2.18837e-05
2	0	0	0	1	22.3771	-0.424533	-0.425042	-0.0565375	2	-0.00111828	2.40308e-05
2	0	0	0	1	22.5171	-0.438528	-0.439036	-0.0595542	2	-0.00112644	2.61465e-05
2	0	0	0	1	22.6571	-0.452523	-0.453051	-0.0622907	2	-0.001135	2.82209e-05
2	0	0	1	1	22.7969	-0.466518	-0.467039	-0.0647237	2	-0.00114392	3.02285e-05
2	0	0	1	1	22.9369	-0.480513	-0.481014	-0.0668779	2	-0.00115317	3.21692e-05
2	0	0	1	1	23.0769	-0.494508	-0.49501	-0.0687663	2	-0.0011627	3.404e-05
2	0	0	1	1	23.2169	-0.508503	-0.509014	-0.0705317	2	-0.00117248	3.59017e-05
2	0	0	0	1	23.3567	-0.522498	-0.522999	-0.0721746	2	-0.00118249	3.77472e-05
2	0	0	0	1	23.4967	-0.536493	-0.536999	-0.073711	2	-0.00119273	3.95828e-05
2	0	0	0	1	23.6367	-0.550488	-0.551004	-0.0752412	2	-0.0012032	4.14582e-05
2	0	0	0	1	23.7767	-0.564483	-0.564986	-0.0767583	2	-0.00121387	4.33673e-05
2	0	0	1	1	23.9165	-0.578478	-0.578987	-0.0782901	2	-0.00122474	4.5329e-05
2	0	0	1	1	24.0565	-0.592473	-0.592973	-0.079846	2	-0.00123584	4.73465e-05
2	0	0	1	1	24.1965	-0.606468	-0.606969	-0.0814324	2	-0.00124716	4.94269e-05
2	0	0	1	1	24.3365	-0.620463	-0.620979	-0.0831571	2	-0.00125871	5.16388e-05
2	0	0	0	1	24.4763	-0.634458	-0.634961	-0.0850512	2	-0.0012705	5.40042e-05
2	0	0	0	1	24.6163	-0.648453	-0.648966	-0.087084	2	-0.00128258	5.65146e-05
2	0	0	0	1	24.7563	-0.662448	-0.662949	-0.0893356	2	-0.00129496	5.92249e-05
2	0	0	0	1	24.8963	-0.676443	-0.676935	-0.0917584	2	-0.00130766	6.21145e-05
2	0	0	1	1	25.0361	-0.690438	-0.690929	-0.0943548	2	-0.0013207	6.51924e-05
2	0	0	1	1	25.1761	-0.704433	-0.704948	-0.097199	2	-0.00133414	6.85203e-05
2	0	0	1	1	25.3161	-0.718428	-0.718924	-0.100218	2	-0.00134799	7.2049e-05
2	0	0	0	1	25.4871	-0.735522	-0.735955	-0.103644	2	-0.00136549	7.62773e-05
2	0	0	1	1	25.6269	-0.749517	-0.749956	-0.10748	2	-0.00138034	8.06053e-05
2	0	0	1	1	25.7669	-0.763512	-0.763925	-0.111683	2	-0.00139579	8.53173e-05
2	0	0	1	1	25.9069	-0.777507	-0.777927	-0.116705	2	-0.00141188	9.07878e-05
2	0	0	1	1	26.0469	-0.791502	-0.791921	-0.122642	2	-0.00142874	9.7123e-05
2	0	0	0	1	26.1867	-0.805497	-0.805916	-0.12966	2	-0.00144648	0.000104495
2	0	0	0	1	26.3267	-0.819492	-0.819892	-0.137969	2	-0.0014653	0.00011312
2	0	0	0	1	26.4667	-0.833487	-0.833925	-0.147856	2	-0.0014854	0.000123301
2	0	0	0	1	26.6067	-0.847482	-0.847907	-0.159757	2	-0.00150702	0.000135459
2	0	0	1	1	26.7465	-0.861477	-0.861897	-0.173777	2	-0.00153041	0.000149778
2	0	0	1	1	26.8865	-0.875472	-0.875891	-0.190561	2	-0.00155599	0.000166911
2	0	0	1	1	27.0265	-0.889467	-0.889875	-0.210646	2	-0.00158416	0.000187449
2	1	0	0	0	27.1479	-0.898363	-0.898779	-0.22193	2	-0.00161093	0.000199466
2	1	0	0	0	27.2879	-0.884368	-0.884768	-0.191495	2	-0.0016396	0.000169429
2	1	0	0	0	27.4279	-0.870373	-0.870788	-0.168173	2	-0.00166461	0.000146443
2	1	0	0	0	27.5679	-0.856378	-0.856794	-0.148866	2	-0.00168665	0.000127547
2	1	0	1	0	27.7077	-0.842383	-0.842806	-0.132711	2	-0.00170618	0.00011185
2	1	0	1	0	27.8477	-0.828388	-0.828816	-0.119173	2	-0.00172367	9.87729e-05
2	1	0	1	0	27.9877	-0.814393	-0.814806	-0.107527	2	-0.0017394	8.76135e-05
2	1	0	1	0	28.1277	-0.800398	-0.800793	-0.0977127	2	-0.00175364	7.82476e-05
2	1	0	0	0	28.2675	-0.786403	-0.786842	-0.0894537	2	-0.0017666	7.03859e-05
2	1	0	0	0	28.4075	-0.772408	-0.772851	-0.0823592	2	-0.0017785	6.36514e-05
2	1	0	0	0	28.5475	-0.758413	-0.758834	-0.0761983	2	-0.00178949	5.78219e-05
2	1	0	0	0	28.6875	-0.744418	-0.744848	-0.0710722	2	-0.00179969	5.2938e-05
2	1	0	1	0	28.8273	-0.730423	-0.730862	-0.0666325	2	-0.00180919	4.86991e-05
2	1	0	1	0	28.9673	-0.716428	-0.716842	-0.0626303	2	-0.00181813	4.4896e-05
[...]
2	1	0	1	0	29.2473	-0.688438	-0.688862	-0.0560456	2	-0.0018345	3.86077e-05
2	1	0	0	0	29.3871	-0.674443	-0.674877	-0.0531715	2	-0.00184203	3.58842e-05
2	1	0	0	0	29.5271	-0.660448	-0.660888	-0.0506705	2	-0.00184919	3.34875e-05
2	1	0	1	0	29.6981	-0.643354	-0.643755	-0.0472919	2	-0.00185744	3.04444e-05
2	1	0	1	0	29.838	-0.62935	-0.629767	-0.0449923	2	-0.00186386	2.83347e-05
2	1	0	0	0	29.9779	-0.615364	-0.615782	-0.0428748	2	-0.00186997	2.64015e-05
2	1	0	0	0	30.1179	-0.60137	-0.601783	-0.0407652	2	-0.00187579	2.45318e-05
2	1	0	0	0	30.2579	-0.587375	-0.587771	-0.0387734	2	-0.00188133	2.27899e-05
2	1	0	0	0	30.3978	-0.57337	-0.573773	-0.0368227	2	-0.00188659	2.11278e-05
2	1	0	1	0	30.5377	-0.559385	-0.55981	-0.0349086	2	-0.00189158	1.95422e-05
2	1	0	1	0	30.6777	-0.54539	-0.545793	-0.0330065	2	-0.0018963	1.80147e-05
2	1	0	1	0	30.8177	-0.531395	-0.531801	-0.0311147	2	-0.00190076	1.65468e-05
2	1	0	1	0	30.9576	-0.51739	-0.517813	-0.0291763	2	-0.00190495	1.51079e-05
2	1	0	0	0	31.0975	-0.503405	-0.503812	-0.0272989	2	-0.00190887	1.37535e-05
2	1	0	0	0	31.2375	-0.489409	-0.48982	-0.0253327	2	-0.00191252	1.24085e-05
2	1	0	0	0	31.3775	-0.475414	-0.475818	-0.0233245	2	-0.00191589	1.10982e-05
2	1	0	0	0	31.5174	-0.46141	-0.461812	-0.0212265	2	-0.00191897	9.80267e-06
2	1	0	1	0	31.6573	-0.447425	-0.447823	-0.0190721	2	-0.00192176	8.5409e-06
2	1	0	1	0	31.7973	-0.433429	-0.433826	-0.016893	2	-0.00192424	7.32865e-06
2	1	0	1	0	31.9373	-0.419434	-0.419844	-0.0146726	2	-0.00192642	6.16022e-06
2	1	0	1	0	32.0772	-0.40543	-0.405824	-0.0123742	2	-0.00192828	5.02174e-06
2	1	0	0	0	32.2171	-0.391444	-0.391818	-0.010246	2	-0.00192983	4.01457e-06
2	1	0	0	0	32.3571	-0.37745	-0.377861	-0.00812541	2	-0.00193108	3.07028e-06
2	1	0	0	0	32.4971	-0.363455	-0.363861	-0.00594985	2	-0.00193203	2.16492e-06
2	1	0	1	0	32.6669	-0.346461	-0.346874	-0.00330556	2	-0.00193282	1.14661e-06
2	1	0	1	0	32.8069	-0.332466	-0.332856	-0.00135438	2	-0.00193314	4.50812e-07
2	1	0	1	0	32.9469	-0.318471	-0.318859	0.000629064	2	-0.00193319	2.00583e-07
2	1	0	1	0	33.0869	-0.304476	-0.304865	0.00261588	2	-0.00193296	7.97491e-07
2	1	0	0	0	33.2267	-0.290481	-0.290841	0.00470259	2	-0.00193245	1.36771e-06
2	1	0	0	0	33.3667	-0.276486	-0.276843	0.00691803	2	-0.00193164	1.91521e-06
2	1	0	0	0	33.5067	-0.262491	-0.262824	0.00934043	2	-0.0019305	2.45489e-06
2	1	0	1	0	33.6777	-0.245397	-0.24578	0.0123473	2	-0.00192864	3.03471e-06
2	1	0	0	0	33.8175	-0.231402	-0.231768	0.0151344	2	-0.00192669	3.50766e-06
2	1	0	0	0	33.9575	-0.217407	-0.217796	0.0179127	2	-0.00192435	3.90131e-06
2	1	0	0	0	34.0975	-0.203412	-0.203788	0.0206344	2	-0.00192161	4.20505e-06
2	1	0	0	0	34.2375	-0.189417	-0.189785	0.023116	2	-0.00191851	4.38708e-06
2	1	0	1	0	34.3773	-0.175422	-0.175799	0.0252145	2	-0.0019151	4.43267e-06
2	1	0	1	0	34.5173	-0.161427	-0.161759	0.0267318	2	-0.00191142	4.3241e-06
2	1	0	1	0	34.6573	-0.147432	-0.147782	0.0275479	2	-0.00190757	4.07108e-06
2	1	0	1	0	34.7973	-0.133437	-0.133791	0.0275625	2	-0.00190367	3.68761e-06
2	1	0	0	0	34.9371	-0.119442	-0.119801	0.0268293	2	-0.00189982	3.21418e-06
2	1	0	0	0	35.0771	-0.105447	-0.105791	0.0255655	2	-0.00189611	2.70459e-06
2	1	0	0	0	35.2171	-0.0914517	-0.0918045	0.023955	2	-0.00189261	2.19917e-06
2	1	0	0	0	35.3571	-0.0774567	-0.077807	0.022194	2	-0.00188935	1.72685e-06
2	1	0	1	0	35.4969	-0.0634617	-0.063825	0.0204823	2	-0.00188633	1.30728e-06
2	1	0	1	0	35.6369	-0.0494667	-0.049836	0.0189855	2	-0.00188354	9.46163e-07
2	1	0	1	0	35.7769	-0.0354717	-0.0358318	0.0177544	2	-0.00188093	6.3617e-07
2	1	0	1	0	35.9169	-0.0214767	-0.0218349	0.0168381	2	-0.00187848	3.67658e-07
2	1	0	0	0	35.9932	-0.0138294	-0.0142124	0.0165027	2	-0.0018772	2.34543e-07