Folder: CV/TAP_Report/Data/Res_PB (part 4)

File: 100 uM RS 10mM PB_07_CV_C01_2.mpt
EC-Lab ASCII FILE
Nb header lines : 53

Cyclic Voltammetry

Run on channel : 1 (SN 0696)
User :
Electrode connection : standard
Ewe ctrl range : min = -10.00 V, max = 10.00 V
Ewe,I filtering : 50 kHz
Channel : Grounded
Acquisition started on : 05/17/2017 12:53:20
Saved on :
	File : 100 uM RS 10mM PB_07_CV_C01.mpr
	Directory : \\userfs\st659\w2k\EC-Lab\Data\ITO Characterisation 17-5-17\
	Host : 144.32.136.43
Device : SP-300 (SN 0182)
Address : USB
EC-Lab for windows v10.44 (software)
Internet server v10.44 (firmware)
Command interpretor v10.44 (firmware)
Electrode material :
Initial state :
Electrolyte :
Comments :
Cable : standard
Electrode surface area : 0.001 cm²
Characteristic mass : 0.001 g
Equivalent Weight : 0.000 g/eq.
Density : 0.000 g/cm3
Ei (V)              0.000
vs.                 Eoc
dE/dt               2500.000
dE/dt unit          mV/s
E1 (V)              0.100
vs.                 Ref
Step percent        50
N                   10
E range min (V)     -10.000
E range max (V)     10.000
I Range             Auto
I Range min         Unset
I Range max         Unset
I Range init        Unset
Bandwidth           8
E2 (V)              -0.600
vs.                 Ref
nc cycles           2
Reverse Scan        1
Ef (V)              0.000
vs.                 Eoc

mode	ox/red	error	control changes	counter inc.	time/s	control/V	Ewe/V	<I>/mA	cycle number	(Q-Qo)/C	P/W
2	1	0	1	1	425.978	-0.599494	-0.599737	-0.01809	2	-3.12317e-06	1.08493e-05
2	1	0	0	1	425.983	-0.586832	-0.587105	-0.0145444	2	-3.20514e-06	8.53911e-06
2	1	0	0	1	425.989	-0.571838	-0.572089	-0.0117271	2	-3.2832e-06	6.70894e-06
2	1	0	0	1	425.995	-0.556843	-0.557118	-0.009665	2	-3.34693e-06	5.38455e-06
2	1	0	0	1	426.001	-0.541849	-0.542095	-0.00802168	2	-3.39966e-06	4.34851e-06
2	1	0	0	1	426.007	-0.526855	-0.527106	-0.00666926	2	-3.4435e-06	3.51541e-06
2	1	0	0	1	426.013	-0.511861	-0.512119	-0.00552029	2	-3.47988e-06	2.82705e-06
2	1	0	0	1	426.019	-0.496866	-0.497115	-0.00451609	2	-3.50983e-06	2.24501e-06
2	1	0	0	1	426.025	-0.481872	-0.482118	-0.00363603	2	-3.53416e-06	1.753e-06
2	1	0	0	1	426.031	-0.466878	-0.46713	-0.00284649	2	-3.5535e-06	1.32968e-06
2	1	0	0	1	426.037	-0.451883	-0.452106	-0.00213812	2	-3.56834e-06	9.66658e-07
2	1	0	0	1	426.043	-0.436889	-0.437136	-0.00150053	2	-3.57918e-06	6.55935e-07
2	1	0	0	1	426.049	-0.421728	-0.422003	-0.000902388	2	-3.58625e-06	3.80811e-07
2	1	0	0	1	426.055	-0.406734	-0.406977	-0.000375103	2	-3.59001e-06	1.52658e-07
2	1	0	0	1	426.061	-0.39174	-0.391982	0.000111796	2	-3.59074e-06	4.38219e-08
2	1	0	0	1	426.067	-0.376745	-0.376986	0.000564814	2	-3.58865e-06	2.12927e-07
2	1	0	0	1	426.073	-0.361751	-0.361998	0.000988634	2	-3.58393e-06	3.57883e-07
2	1	0	0	1	426.079	-0.346757	-0.347012	0.00138802	2	-3.57676e-06	4.8166e-07
2	1	0	0	1	426.085	-0.331763	-0.331987	0.00178146	2	-3.5672e-06	5.91421e-07
2	1	0	0	1	426.091	-0.316768	-0.316994	0.00214921	2	-3.55536e-06	6.81288e-07
2	1	0	0	1	426.097	-0.301774	-0.301998	0.00251338	2	-3.54133e-06	7.59037e-07
2	1	0	0	1	426.103	-0.28678	-0.286982	0.00287622	2	-3.52511e-06	8.25423e-07
2	1	0	0	1	426.109	-0.271785	-0.272001	0.00323395	2	-3.50675e-06	8.79639e-07
2	1	0	0	1	426.115	-0.256791	-0.257016	0.00359673	2	-3.48622e-06	9.24418e-07
2	1	0	0	1	426.121	-0.241797	-0.242014	0.00397088	2	-3.46349e-06	9.61009e-07
2	1	0	0	1	426.127	-0.226803	-0.227057	0.00434535	2	-3.4385e-06	9.86642e-07
2	1	0	0	1	426.133	-0.211808	-0.21202	0.00472781	2	-3.41125e-06	1.00239e-06
2	1	0	0	1	426.139	-0.196814	-0.197001	0.0050869	2	-3.38175e-06	1.00212e-06
2	1	0	0	1	426.145	-0.18182	-0.182035	0.00540126	2	-3.35024e-06	9.83216e-07
2	1	0	0	1	426.151	-0.166826	-0.167048	0.00568089	2	-3.31693e-06	9.48983e-07
2	1	0	0	1	426.157	-0.151831	-0.152042	0.00591884	2	-3.28209e-06	8.99914e-07
2	1	0	0	1	426.163	-0.136837	-0.137056	0.0061253	2	-3.24593e-06	8.39511e-07
2	1	0	0	1	426.169	-0.121843	-0.122054	0.00630395	2	-3.20861e-06	7.69421e-07
2	1	0	0	1	426.175	-0.106848	-0.107043	0.00644782	2	-3.17031e-06	6.90193e-07
2	1	0	0	1	426.181	-0.0918541	-0.0920437	0.00657862	2	-3.13122e-06	6.0552e-07
2	1	0	0	1	426.187	-0.0768598	-0.0770834	0.00667327	2	-3.09145e-06	5.14398e-07
2	1	0	0	1	426.193	-0.0618655	-0.0620922	0.00675052	2	-3.05115e-06	4.19155e-07
2	1	0	0	1	426.199	-0.0468712	-0.047083	0.00681076	2	-3.01045e-06	3.20671e-07
2	1	0	0	1	426.205	-0.031877	-0.0320844	0.00685075	2	-2.96947e-06	2.19802e-07
2	1	0	0	1	426.211	-0.0168827	-0.017099	0.00688505	2	-2.92824e-06	1.17727e-07
2	1	0	0	1	426.217	-0.0018884	-0.00212179	0.00690774	2	-2.88685e-06	1.46568e-08
2	1	0	0	1	426.223	0.0132725	0.0131115	0.00695544	2	-2.84523e-06	9.11959e-08
2	1	0	0	1	426.229	0.0282668	0.0280787	0.00693372	2	-2.80355e-06	1.9469e-07
2	1	0	0	1	426.235	0.043261	0.0430766	0.00692559	2	-2.76195e-06	2.98331e-07
2	1	0	0	1	426.241	0.0582553	0.0581085	0.00691359	2	-2.72044e-06	4.01739e-07
2	1	0	0	1	426.247	0.0732496	0.0731116	0.00689145	2	-2.67903e-06	5.03845e-07
2	1	0	0	1	426.253	0.0882439	0.0880639	0.00685704	2	-2.63779e-06	6.03858e-07
2	1	0	0	1	426.258	0.0999061	0.0997535	0.00681691	2	-2.60561e-06	6.80011e-07
2	0	0	1	1	426.259	0.0972404	0.097113	0.0056611	2	-2.5966e-06	5.49766e-07
2	0	0	1	1	426.265	0.0822462	0.0821219	0.00213285	2	-2.57473e-06	1.75154e-07
2	0	0	1	1	426.271	0.0672519	0.0671228	0.00023823	2	-2.56827e-06	1.59907e-08
2	0	0	1	1	426.277	0.0522576	0.0521334	-0.000935676	2	-2.57069e-06	4.87799e-08
2	0	0	1	1	426.283	0.0372633	0.037143	-0.00174164	2	-2.57892e-06	6.46897e-08
2	0	0	1	1	426.289	0.0222691	0.0221262	-0.00234624	2	-2.59132e-06	5.19134e-08
2	0	0	1	1	426.295	0.00723775	0.00708459	-0.0028389	2	-2.60695e-06	2.01124e-08
2	0	0	1	1	426.301	-0.00788611	-0.00804247	-0.00325776	2	-2.62536e-06	2.62005e-08
2	0	0	1	1	426.307	-0.0228804	-0.023029	-0.00360374	2	-2.64599e-06	8.29904e-08
2	0	0	1	1	426.313	-0.0378747	-0.0380261	-0.00392608	2	-2.66863e-06	1.49294e-07
2	0	0	1	1	426.319	-0.052869	-0.053065	-0.0042351	2	-2.69316e-06	2.24736e-07
2	0	0	1	1	426.325	-0.0678632	-0.0680581	-0.00451111	2	-2.71943e-06	3.07017e-07
2	0	0	1	1	426.331	-0.0828575	-0.0830439	-0.00478745	2	-2.74736e-06	3.97569e-07
2	0	0	1	1	426.337	-0.0978518	-0.0980052	-0.00505536	2	-2.7769e-06	4.95452e-07
2	0	0	1	1	426.343	-0.112846	-0.112995	-0.00531086	2	-2.80801e-06	6.00101e-07
2	0	0	1	1	426.349	-0.12784	-0.128015	-0.00557483	2	-2.84068e-06	7.13664e-07
2	0	0	1	1	426.355	-0.142835	-0.142997	-0.00583785	2	-2.87495e-06	8.34795e-07
2	0	0	1	1	426.361	-0.157829	-0.157997	-0.00610048	2	-2.91078e-06	9.63858e-07
2	0	0	1	1	426.367	-0.172823	-0.173026	-0.00636624	2	-2.94821e-06	1.10153e-06
2	0	0	1	1	426.373	-0.187817	-0.188024	-0.00663186	2	-2.98725e-06	1.24695e-06
2	0	0	1	1	426.379	-0.202812	-0.203003	-0.00690174	2	-3.02786e-06	1.40107e-06
2	0	0	1	1	426.385	-0.217806	-0.218007	-0.00718792	2	-3.07016e-06	1.56702e-06
2	0	0	1	1	426.391	-0.2328	-0.233	-0.00747924	2	-3.1142e-06	1.74267e-06
2	0	0	1	1	426.397	-0.247795	-0.248012	-0.0077942	2	-3.16003e-06	1.93305e-06
2	0	0	1	1	426.403	-0.262789	-0.262967	-0.00812773	2	-3.20781e-06	2.13733e-06
2	0	0	1	1	426.409	-0.277783	-0.27795	-0.00849076	2	-3.25769e-06	2.36001e-06
2	0	0	1	1	426.415	-0.292777	-0.292947	-0.00888123	2	-3.30984e-06	2.60173e-06
2	0	0	1	1	426.421	-0.307772	-0.307966	-0.0092957	2	-3.36441e-06	2.86276e-06
2	0	0	1	1	426.427	-0.322766	-0.322952	-0.00972743	2	-3.42153e-06	3.14149e-06
2	0	0	1	1	426.433	-0.33776	-0.337966	-0.0101829	2	-3.48132e-06	3.44147e-06
2	0	0	1	1	426.439	-0.352755	-0.352998	-0.0106287	2	-3.54381e-06	3.75192e-06
2	0	0	1	1	426.445	-0.367749	-0.367953	-0.0110549	2	-3.60892e-06	4.0677e-06
2	0	0	1	1	426.451	-0.382743	-0.382989	-0.011469	2	-3.67654e-06	4.39251e-06
2	0	0	1	1	426.457	-0.397737	-0.397991	-0.0118598	2	-3.74659e-06	4.7201e-06
2	0	0	1	1	426.463	-0.412732	-0.412957	-0.0122264	2	-3.81889e-06	5.04896e-06
2	0	0	1	1	426.469	-0.427726	-0.427937	-0.0125395	2	-3.89324e-06	5.36613e-06
2	0	0	1	1	426.475	-0.442887	-0.443094	-0.012876	2	-3.9696e-06	5.70529e-06
2	0	0	1	1	426.481	-0.457881	-0.458093	-0.0131807	2	-4.04779e-06	6.03801e-06
2	0	0	1	1	426.487	-0.472876	-0.473103	-0.0134948	2	-4.12782e-06	6.38444e-06
2	0	0	1	1	426.493	-0.48787	-0.488095	-0.0138161	2	-4.20976e-06	6.74355e-06
2	0	0	1	1	426.499	-0.502864	-0.503101	-0.014148	2	-4.29363e-06	7.11786e-06
2	0	0	1	1	426.505	-0.517858	-0.518076	-0.01453	2	-4.37969e-06	7.52764e-06
2	0	0	1	1	426.511	-0.532853	-0.533073	-0.0149252	2	-4.46809e-06	7.95622e-06
2	0	0	1	1	426.517	-0.547847	-0.548063	-0.0153958	2	-4.55908e-06	8.43785e-06
2	0	0	1	1	426.523	-0.562841	-0.563064	-0.0158735	2	-4.65294e-06	8.93782e-06
2	0	0	1	1	426.529	-0.577835	-0.578064	-0.0164057	2	-4.74985e-06	9.48352e-06
2	0	0	1	1	426.535	-0.59283	-0.593038	-0.0169885	2	-4.85004e-06	1.00748e-05
2	0	0	0	1	426.538	-0.60016	-0.600344	-0.0173146	2	-4.89974e-06	1.03947e-05

File: 100 uM RS 10mM PB_08_CV_C01_2.mpt
EC-Lab ASCII FILE
Nb header lines : 53

Cyclic Voltammetry

Run on channel : 1 (SN 0696)
User :
Electrode connection : standard
Ewe ctrl range : min = -10.00 V, max = 10.00 V
Ewe,I filtering : 50 kHz
Channel : Grounded
Acquisition started on : 05/17/2017 12:53:20
Saved on :
	File : 100 uM RS 10mM PB_08_CV_C01.mpr
	Directory : \\userfs\st659\w2k\EC-Lab\Data\ITO Characterisation 17-5-17\
	Host : 144.32.136.43
Device : SP-300 (SN 0182)
Address : USB
EC-Lab for windows v10.44 (software)
Internet server v10.44 (firmware)
Command interpretor v10.44 (firmware)
Electrode material :
Initial state :
Electrolyte :
Comments :
Cable : standard
Electrode surface area : 0.001 cm²
Characteristic mass : 0.001 g
Equivalent Weight : 0.000 g/eq.
Density : 0.000 g/cm3
Ei (V)              0.000
vs.                 Eoc
dE/dt               5000.000
dE/dt unit          mV/s
E1 (V)              0.100
vs.                 Ref
Step percent        50
N                   10
E range min (V)     -10.000
E range max (V)     10.000
I Range             Auto
I Range min         Unset
I Range max         Unset
I Range init        Unset
Bandwidth           8
E2 (V)              -0.600
vs.                 Ref
nc cycles           2
Reverse Scan        1
Ef (V)              0.000
vs.                 Eoc

mode	ox/red	error	control changes	counter inc.	time/s	control/V	Ewe/V	<I>/mA	cycle number	(Q-Qo)/C	P/W
2	1	0	0	1	427.825	-0.599494	-0.599783	-0.0244846	2	-2.25301e-06	1.46854e-05
2	1	0	1	1	427.828	-0.584	-0.58429	-0.0196553	2	-2.32e-06	1.14844e-05
2	1	0	1	1	427.832	-0.564007	-0.564298	-0.0149621	2	-2.38842e-06	8.44308e-06
2	1	0	1	1	427.836	-0.544015	-0.54427	-0.0113036	2	-2.44035e-06	6.15221e-06
2	1	0	1	1	427.84	-0.524023	-0.52429	-0.0083561	2	-2.47922e-06	4.38102e-06
2	1	0	1	1	427.844	-0.50403	-0.504314	-0.00590822	2	-2.50738e-06	2.97959e-06
2	1	0	1	1	427.848	-0.484038	-0.484311	-0.00384876	2	-2.52659e-06	1.864e-06
2	1	0	1	1	427.852	-0.464046	-0.464283	-0.00209373	2	-2.53823e-06	9.72084e-07
2	1	0	1	1	427.856	-0.444053	-0.444313	-0.000590319	2	-2.54339e-06	2.62286e-07
2	1	0	1	1	427.86	-0.424061	-0.424318	0.000719577	2	-2.54294e-06	3.0533e-07
2	1	0	1	1	427.864	-0.404068	-0.404326	0.00185981	2	-2.53763e-06	7.51972e-07
2	1	0	1	1	427.868	-0.384076	-0.384347	0.00287048	2	-2.52804e-06	1.10326e-06
2	1	0	1	1	427.872	-0.364084	-0.364339	0.00377186	2	-2.51464e-06	1.37423e-06
2	1	0	1	1	427.876	-0.344091	-0.344359	0.00457513	2	-2.49785e-06	1.57549e-06
2	1	0	1	1	427.88	-0.324099	-0.324308	0.00532191	2	-2.47796e-06	1.72594e-06
2	1	0	1	1	427.884	-0.304107	-0.304335	0.00600092	2	-2.45524e-06	1.82629e-06
2	1	0	1	1	427.888	-0.284114	-0.284319	0.00665113	2	-2.42986e-06	1.89104e-06
2	1	0	1	1	427.892	-0.264122	-0.264354	0.00726624	2	-2.40197e-06	1.92086e-06
2	1	0	1	1	427.896	-0.244129	-0.244365	0.0078704	2	-2.37164e-06	1.92325e-06
2	1	0	1	1	427.9	-0.224137	-0.224385	0.00847953	2	-2.33887e-06	1.90268e-06
2	1	0	1	1	427.904	-0.204145	-0.204371	0.00910156	2	-2.30365e-06	1.86009e-06
2	1	0	1	1	427.908	-0.184152	-0.184401	0.00972071	2	-2.26593e-06	1.79251e-06
2	1	0	1	1	427.912	-0.16416	-0.164393	0.0103213	2	-2.22578e-06	1.69676e-06
2	1	0	1	1	427.916	-0.144167	-0.144394	0.0108603	2	-2.18333e-06	1.56816e-06
2	1	0	1	1	427.92	-0.124175	-0.124379	0.0113322	2	-2.13888e-06	1.40948e-06
2	1	0	1	1	427.924	-0.104183	-0.104396	0.0117169	2	-2.09272e-06	1.22319e-06
2	1	0	1	1	427.928	-0.0841903	-0.0844046	0.0120253	2	-2.04519e-06	1.01499e-06
2	1	0	1	1	427.932	-0.064198	-0.064429	0.0122983	2	-1.9965e-06	7.92367e-07
2	1	0	1	1	427.936	-0.0442056	-0.0444347	0.0125058	2	-1.94686e-06	5.5569e-07
2	1	0	1	1	427.94	-0.0242132	-0.0244248	0.0126485	2	-1.89651e-06	3.08938e-07
2	1	0	1	1	427.944	-0.00422084	-0.00443711	0.0127382	2	-1.84571e-06	5.65206e-08
2	1	0	1	1	427.948	0.0161047	0.0159467	0.0128304	2	-1.79454e-06	2.04603e-07
2	1	0	1	1	427.952	0.0360971	0.0359189	0.0128137	2	-1.74325e-06	4.60253e-07
2	1	0	1	1	427.956	0.0560895	0.0559467	0.0127895	2	-1.69205e-06	7.15527e-07
2	1	0	1	1	427.96	0.0760818	0.0759119	0.0127229	2	-1.64102e-06	9.65822e-07
2	1	0	1	1	427.964	0.0950746	0.094893	0.0126647	2	-1.59279e-06	1.20179e-06
2	1	0	0	1	427.965	0.100573	0.10041	0.0126485	2	-1.57887e-06	1.27003e-06
2	0	0	0	1	427.966	0.094075	0.0939886	0.0102658	2	-1.56496e-06	9.64866e-07
2	0	0	0	1	427.97	0.0740826	0.0739965	0.00491292	2	-1.53581e-06	3.63539e-07
2	0	0	0	1	427.974	0.0540902	0.054011	0.00143229	2	-1.52383e-06	7.73592e-08
2	0	0	0	1	427.978	0.0340979	0.0339957	-0.000984792	2	-1.52339e-06	3.34787e-08
2	0	0	0	1	427.982	0.0141055	0.0140047	-0.0027372	2	-1.53115e-06	3.83336e-08
2	0	0	0	1	427.986	-0.00622008	-0.00637449	-0.00412454	2	-1.54515e-06	2.62918e-08
2	0	0	0	1	427.99	-0.0262125	-0.0263495	-0.00515364	2	-1.56387e-06	1.35796e-07
2	0	0	0	1	427.994	-0.0462048	-0.0463577	-0.00601141	2	-1.58632e-06	2.78675e-07
2	0	0	0	1	427.998	-0.0661972	-0.0663416	-0.00673986	2	-1.61193e-06	4.47133e-07
2	0	0	0	1	428.002	-0.0861896	-0.086329	-0.00739116	2	-1.64029e-06	6.38072e-07
2	0	0	0	1	428.006	-0.106182	-0.106329	-0.00798189	2	-1.67111e-06	8.48709e-07
2	0	0	0	1	428.01	-0.126174	-0.126333	-0.0085386	2	-1.70421e-06	1.07871e-06
2	0	0	0	1	428.014	-0.146167	-0.146331	-0.00906871	2	-1.73948e-06	1.32703e-06
2	0	0	0	1	428.018	-0.166159	-0.166306	-0.00958232	2	-1.77683e-06	1.59359e-06
2	0	0	0	1	428.022	-0.186151	-0.186308	-0.0100967	2	-1.81624e-06	1.88109e-06
2	0	0	0	1	428.026	-0.206144	-0.206284	-0.0106029	2	-1.85768e-06	2.1872e-06
2	0	0	0	1	428.03	-0.226136	-0.22632	-0.0111258	2	-1.90119e-06	2.51798e-06
2	0	0	0	1	428.034	-0.246129	-0.246309	-0.0116605	2	-1.94681e-06	2.87208e-06
2	0	0	0	1	428.038	-0.266121	-0.26627	-0.0122129	2	-1.9946e-06	3.25192e-06
2	0	0	0	1	428.042	-0.286113	-0.286252	-0.0127997	2	-2.04467e-06	3.66395e-06
2	0	0	0	1	428.046	-0.306106	-0.306283	-0.0134387	2	-2.09721e-06	4.11606e-06
2	0	0	0	1	428.05	-0.326098	-0.326255	-0.0141149	2	-2.15237e-06	4.60506e-06
2	0	0	0	1	428.054	-0.346091	-0.346282	-0.0148351	2	-2.21034e-06	5.13714e-06
2	0	0	0	1	428.058	-0.366083	-0.36624	-0.0155747	2	-2.27123e-06	5.70408e-06
2	0	0	0	1	428.062	-0.386075	-0.386284	-0.0163368	2	-2.33513e-06	6.31066e-06
2	0	0	0	1	428.066	-0.406068	-0.406289	-0.0170717	2	-2.40201e-06	6.93605e-06
2	0	0	0	1	428.07	-0.42606	-0.42626	-0.0177856	2	-2.47181e-06	7.5813e-06
2	0	0	0	1	428.074	-0.446052	-0.446233	-0.0184523	2	-2.54436e-06	8.234e-06
2	0	0	0	1	428.078	-0.466045	-0.466234	-0.0190889	2	-2.6195e-06	8.89987e-06
2	0	0	0	1	428.082	-0.486037	-0.486242	-0.0196586	2	-2.69706e-06	9.55884e-06
2	0	0	0	1	428.086	-0.506029	-0.506216	-0.0202197	2	-2.77688e-06	1.02355e-05
2	0	0	0	1	428.09	-0.526022	-0.526219	-0.0207623	2	-2.85892e-06	1.09255e-05
2	0	0	0	1	428.094	-0.546014	-0.546193	-0.0213098	2	-2.9431e-06	1.16393e-05
2	0	0	0	1	428.098	-0.566007	-0.566216	-0.0218994	2	-3.02957e-06	1.23998e-05
2	0	0	0	1	428.102	-0.585999	-0.586185	-0.0225447	2	-3.1185e-06	1.32154e-05
2	0	0	0	1	428.105	-0.599494	-0.599673	-0.0230043	2	-3.17996e-06	1.37951e-05
2	0	0	1	1	428.105	-0.600493	-0.600645	-0.0230349	2	-3.18457e-06	1.38358e-05