Folder: CV/TAP_Report/Data/Res_PB (part 3)

File: 100 uM RS 10mM PB_05_CV_C01_2.mpt
EC-Lab ASCII FILE
Nb header lines : 53

Cyclic Voltammetry

Run on channel : 1 (SN 0696)
User :
Electrode connection : standard
Ewe ctrl range : min = -10.00 V, max = 10.00 V
Ewe,I filtering : 50 kHz
Channel : Grounded
Acquisition started on : 05/17/2017 12:53:20
Saved on :
	File : 100 uM RS 10mM PB_05_CV_C01.mpr
	Directory : \\userfs\st659\w2k\EC-Lab\Data\ITO Characterisation 17-5-17\
	Host : 144.32.136.43
Device : SP-300 (SN 0182)
Address : USB
EC-Lab for windows v10.44 (software)
Internet server v10.44 (firmware)
Command interpretor v10.44 (firmware)
Electrode material :
Initial state :
Electrolyte :
Comments :
Cable : standard
Electrode surface area : 0.001 cm²
Characteristic mass : 0.001 g
Equivalent Weight : 0.000 g/eq.
Density : 0.000 g/cm3
Ei (V)              0.000
vs.                 Eoc
dE/dt               500.000
dE/dt unit          mV/s
E1 (V)              0.100
vs.                 Ref
Step percent        50
N                   10
E range min (V)     -10.000
E range max (V)     10.000
I Range             Auto
I Range min         Unset
I Range max         Unset
I Range init        Unset
Bandwidth           8
E2 (V)              -0.600
vs.                 Ref
nc cycles           2
Reverse Scan        1
Ef (V)              0.000
vs.                 Eoc

mode	ox/red	error	control changes	counter inc.	time/s	control/V	Ewe/V	<I>/mA	cycle number	(Q-Qo)/C	P/W
2	1	0	0	1	412.787	-0.599827	-0.600031	-0.0124543	2	-8.23587e-06	7.47295e-06
2	1	0	1	1	412.811	-0.587998	-0.588213	-0.0105239	2	-8.50141e-06	6.19032e-06
2	1	0	0	1	412.837	-0.574703	-0.574918	-0.00943308	2	-8.76543e-06	5.42325e-06
2	1	0	0	1	412.864	-0.561308	-0.561509	-0.00856241	2	-9.00558e-06	4.80787e-06
2	1	0	1	1	412.891	-0.548014	-0.548224	-0.00780919	2	-9.22251e-06	4.28119e-06
2	1	0	0	1	412.917	-0.534719	-0.534914	-0.00713827	2	-9.4205e-06	3.81836e-06
2	1	0	0	1	412.944	-0.521324	-0.521528	-0.00652707	2	-9.60291e-06	3.40405e-06
2	1	0	1	1	412.971	-0.507995	-0.508207	-0.00597598	2	-9.76847e-06	3.03704e-06
2	1	0	0	1	412.997	-0.4947	-0.494907	-0.00547161	2	-9.92002e-06	2.70794e-06
2	1	0	1	1	413.024	-0.481406	-0.481624	-0.00501015	2	-1.00588e-05	2.41301e-06
2	1	0	1	1	413.051	-0.468011	-0.468216	-0.00458197	2	-1.01867e-05	2.14536e-06
2	1	0	0	1	413.077	-0.454716	-0.454887	-0.00418546	2	-1.03027e-05	1.90391e-06
2	1	0	0	1	413.135	-0.426093	-0.426298	-0.0034478	2	-1.05245e-05	1.46979e-06
2	1	0	0	1	413.161	-0.412698	-0.412898	-0.00313299	2	-1.06122e-05	1.2936e-06
2	1	0	1	1	413.188	-0.399404	-0.399606	-0.00284536	2	-1.06912e-05	1.13702e-06
2	1	0	0	1	413.215	-0.386109	-0.386318	-0.00256999	2	-1.07628e-05	9.92835e-07
2	1	0	0	1	413.241	-0.372714	-0.37289	-0.00230706	2	-1.08276e-05	8.60281e-07
2	1	0	1	1	413.268	-0.359419	-0.359648	-0.00206222	2	-1.08852e-05	7.41672e-07
2	1	0	0	1	413.295	-0.346124	-0.346333	-0.00182077	2	-1.09364e-05	6.30593e-07
2	1	0	1	1	413.321	-0.332796	-0.332972	-0.00158688	2	-1.09812e-05	5.28385e-07
2	1	0	1	1	413.348	-0.319401	-0.319573	-0.00136083	2	-1.10202e-05	4.34885e-07
2	1	0	0	1	413.375	-0.306106	-0.3063	-0.00113504	2	-1.1053e-05	3.47663e-07
2	1	0	1	1	413.401	-0.292811	-0.292973	-0.00091109	2	-1.10798e-05	2.66925e-07
2	1	0	1	1	413.428	-0.279416	-0.27956	-0.000689343	2	-1.11008e-05	1.92713e-07
2	1	0	0	1	413.455	-0.266121	-0.266296	-0.000468991	2	-1.11158e-05	1.24891e-07
2	1	0	1	1	413.481	-0.252793	-0.25298	-0.000250814	2	-1.11249e-05	6.3451e-08
2	1	0	0	1	413.508	-0.239498	-0.239649	-4.25388e-05	2	-1.11283e-05	1.01944e-08
2	1	0	0	1	413.535	-0.226103	-0.226292	0.000146161	2	-1.11264e-05	3.30751e-08
2	1	0	1	1	413.561	-0.212808	-0.212983	0.000317723	2	-1.11198e-05	6.76694e-08
2	1	0	0	1	413.588	-0.199513	-0.199662	0.000468729	2	-1.11088e-05	9.35873e-08
2	1	0	0	1	413.615	-0.186118	-0.186316	0.000598234	2	-1.10941e-05	1.1146e-07
2	1	0	1	1	413.641	-0.172823	-0.17297	0.000715591	2	-1.10761e-05	1.23776e-07
2	1	0	0	1	413.668	-0.159495	-0.159654	0.000824871	2	-1.10552e-05	1.31694e-07
2	1	0	1	1	413.694	-0.1462	-0.146378	0.000915837	2	-1.10315e-05	1.34058e-07
2	1	0	1	1	413.721	-0.132805	-0.132964	0.00100673	2	-1.10053e-05	1.33859e-07
2	1	0	0	1	413.748	-0.11951	-0.119656	0.00108532	2	-1.09771e-05	1.29865e-07
2	1	0	1	1	413.774	-0.106215	-0.106356	0.00115468	2	-1.09468e-05	1.22807e-07
2	1	0	1	1	413.801	-0.0928204	-0.0929549	0.0012183	2	-1.09146e-05	1.13247e-07
2	1	0	0	1	413.828	-0.0794921	-0.079649	0.00126984	2	-1.08811e-05	1.01142e-07
2	1	0	1	1	413.854	-0.0661972	-0.0663373	0.00130641	2	-1.08464e-05	8.66638e-08
2	1	0	0	1	413.881	-0.0529023	-0.0530672	0.0013352	2	-1.08108e-05	7.08552e-08
2	1	0	0	1	413.908	-0.0395074	-0.0396348	0.00135975	2	-1.07743e-05	5.38936e-08
2	1	0	1	1	413.934	-0.0262125	-0.0263407	0.00137206	2	-1.07376e-05	3.6141e-08
2	1	0	0	1	413.961	-0.0129175	-0.0130702	0.00137915	2	-1.07006e-05	1.80258e-08
2	1	0	0	1	413.988	0.00049038	0.00032516	0.00138928	2	-1.06631e-05	4.51738e-10
2	1	0	1	1	414.014	0.0138056	0.0136964	0.00139867	2	-1.06255e-05	1.91567e-08
2	1	0	0	1	414.041	0.0271005	0.0269941	0.00140262	2	-1.05879e-05	3.78625e-08
2	1	0	1	1	414.068	0.0403955	0.0402696	0.00140775	2	-1.05501e-05	5.66895e-08
2	1	0	1	1	414.094	0.0537904	0.0536956	0.00142032	2	-1.05118e-05	7.62649e-08
2	1	0	0	1	414.121	0.0670853	0.0670141	0.00143252	2	-1.04734e-05	9.59991e-08
2	1	0	1	1	414.148	0.0803802	0.0802985	0.00144878	2	-1.04347e-05	1.16335e-07
2	1	0	1	1	414.174	0.0937418	0.0936279	0.00146842	2	-1.03953e-05	1.37485e-07
2	0	0	1	1	414.191	0.0980401	0.0979304	0.000900017	2	-1.03725e-05	8.8139e-08
2	0	0	0	1	414.218	0.0847119	0.0845929	-0.000174248	2	-1.03679e-05	1.47402e-08
2	0	0	1	1	414.244	0.071417	0.0713077	-0.000483472	2	-1.03774e-05	3.44753e-08
2	0	0	0	1	414.271	0.058122	0.058021	-0.000698344	2	-1.03937e-05	4.05186e-08
2	0	0	0	1	414.298	0.0447272	0.0445965	-0.000884503	2	-1.04155e-05	3.94457e-08
2	0	0	1	1	414.324	0.0314322	0.0312926	-0.00104268	2	-1.04415e-05	3.26282e-08
2	0	0	0	1	414.351	0.0181373	0.0179892	-0.001187	2	-1.04717e-05	2.13531e-08
2	0	0	1	1	414.377	0.00480905	0.00466144	-0.00132894	2	-1.05056e-05	6.19479e-09
2	0	0	1	1	414.404	-0.00858584	-0.00877059	-0.00145799	2	-1.05434e-05	1.27875e-08
2	0	0	0	1	414.431	-0.0218808	-0.0220458	-0.00158016	2	-1.05842e-05	3.48358e-08
2	0	0	1	1	414.457	-0.0351757	-0.0353403	-0.0017023	2	-1.06283e-05	6.01598e-08
2	0	0	1	1	414.484	-0.0485706	-0.0487648	-0.00182122	2	-1.0676e-05	8.88117e-08
2	0	0	0	1	414.511	-0.0618655	-0.0620523	-0.0019353	2	-1.07264e-05	1.2009e-07
2	0	0	1	1	414.537	-0.0751605	-0.0753484	-0.00204939	2	-1.07798e-05	1.54418e-07
2	0	0	0	1	414.564	-0.0884887	-0.0886649	-0.00215982	2	-1.08363e-05	1.915e-07
2	0	0	0	1	414.591	-0.101884	-0.102033	-0.00227281	2	-1.08961e-05	2.31901e-07
2	0	0	1	1	414.617	-0.115179	-0.115353	-0.00238436	2	-1.09584e-05	2.75043e-07
2	0	0	0	1	414.644	-0.128473	-0.128674	-0.00249859	2	-1.10238e-05	3.21503e-07
2	0	0	0	1	414.671	-0.141868	-0.142073	-0.00261287	2	-1.10927e-05	3.7122e-07
2	0	0	1	1	414.697	-0.155163	-0.155355	-0.00272203	2	-1.11641e-05	4.2288e-07
2	0	0	0	1	414.724	-0.16848	-0.16869	-0.00284361	2	-1.12385e-05	4.79689e-07
2	0	0	1	1	414.751	-0.181786	-0.181994	-0.00295929	2	-1.13161e-05	5.38574e-07
2	0	0	1	1	414.777	-0.195181	-0.195373	-0.00307806	2	-1.13974e-05	6.01369e-07
2	0	0	0	1	414.804	-0.208476	-0.208679	-0.00321144	2	-1.14815e-05	6.70159e-07
2	0	0	1	1	414.831	-0.221771	-0.221981	-0.00335629	2	-1.15693e-05	7.45032e-07
2	0	0	1	1	414.857	-0.235166	-0.235383	-0.00351613	2	-1.16618e-05	8.27637e-07
2	0	0	0	1	414.884	-0.248461	-0.248679	-0.00370077	2	-1.17582e-05	9.20304e-07
2	0	0	1	1	414.911	-0.261789	-0.261992	-0.00390433	2	-1.18597e-05	1.0229e-06
2	0	0	0	1	414.937	-0.275084	-0.275283	-0.00412666	2	-1.19669e-05	1.136e-06
2	0	0	0	1	414.964	-0.288479	-0.288661	-0.00436241	2	-1.20811e-05	1.25926e-06
2	0	0	1	1	414.991	-0.301774	-0.301994	-0.00460267	2	-1.22008e-05	1.38998e-06
2	0	0	0	1	415.017	-0.315069	-0.315287	-0.00483519	2	-1.23268e-05	1.52447e-06
2	0	0	0	1	415.044	-0.328464	-0.328667	-0.00506568	2	-1.24599e-05	1.66492e-06
2	0	0	1	1	415.071	-0.34177	-0.342024	-0.00529073	2	-1.25981e-05	1.80956e-06
2	0	0	0	1	415.097	-0.355087	-0.355336	-0.00549725	2	-1.2742e-05	1.95337e-06
2	0	0	1	1	415.124	-0.368382	-0.368609	-0.00569611	2	-1.28913e-05	2.09964e-06
2	0	0	1	1	415.151	-0.381777	-0.38202	-0.00590755	2	-1.30472e-05	2.25681e-06
2	0	0	0	1	415.177	-0.395072	-0.39533	-0.00611726	2	-1.32076e-05	2.41834e-06
2	0	0	1	1	415.204	-0.408367	-0.408599	-0.00633151	2	-1.33736e-05	2.58705e-06
2	0	0	1	1	415.231	-0.421762	-0.422009	-0.0065728	2	-1.35469e-05	2.77378e-06
2	0	0	0	1	415.257	-0.43509	-0.435331	-0.00682863	2	-1.37255e-05	2.97271e-06
2	0	0	1	1	415.284	-0.448385	-0.448612	-0.00710005	2	-1.39112e-05	3.18516e-06
2	0	0	0	1	415.31	-0.46168	-0.461926	-0.00739922	2	-1.41044e-05	3.41789e-06
2	0	0	0	1	415.337	-0.475075	-0.475303	-0.00771759	2	-1.43074e-05	3.6682e-06
2	0	0	1	1	415.364	-0.48837	-0.488622	-0.0080639	2	-1.45177e-05	3.9402e-06
2	0	0	0	1	415.39	-0.501665	-0.501917	-0.00843617	2	-1.47376e-05	4.23426e-06
2	0	0	0	1	415.417	-0.515059	-0.515317	-0.00883092	2	-1.49694e-05	4.55072e-06
2	0	0	1	1	415.444	-0.528388	-0.528627	-0.00925491	2	-1.52104e-05	4.89239e-06
2	0	0	0	1	415.47	-0.541683	-0.541928	-0.00970291	2	-1.5463e-05	5.25828e-06
2	0	0	1	1	415.497	-0.554978	-0.555239	-0.0101813	2	-1.57279e-05	5.65307e-06
2	0	0	1	1	415.554	-0.583367	-0.583571	-0.0112676	2	-1.63286e-05	6.57541e-06
2	0	0	0	1	415.58	-0.596662	-0.596875	-0.0118278	2	-1.66364e-05	7.05974e-06
2	0	0	0	1	415.587	-0.60016	-0.600359	-0.0120017	2	-1.6715e-05	7.20535e-06

File: 100 uM RS 10mM PB_06_CV_C01_2.mpt
EC-Lab ASCII FILE
Nb header lines : 53

Cyclic Voltammetry

Run on channel : 1 (SN 0696)
User :
Electrode connection : standard
Ewe ctrl range : min = -10.00 V, max = 10.00 V
Ewe,I filtering : 50 kHz
Channel : Grounded
Acquisition started on : 05/17/2017 12:53:20
Saved on :
	File : 100 uM RS 10mM PB_06_CV_C01.mpr
	Directory : \\userfs\st659\w2k\EC-Lab\Data\ITO Characterisation 17-5-17\
	Host : 144.32.136.43
Device : SP-300 (SN 0182)
Address : USB
EC-Lab for windows v10.44 (software)
Internet server v10.44 (firmware)
Command interpretor v10.44 (firmware)
Electrode material :
Initial state :
Electrolyte :
Comments :
Cable : standard
Electrode surface area : 0.001 cm²
Characteristic mass : 0.001 g
Equivalent Weight : 0.000 g/eq.
Density : 0.000 g/cm3
Ei (V)              0.000
vs.                 Eoc
dE/dt               1000.000
dE/dt unit          mV/s
E1 (V)              0.100
vs.                 Ref
Step percent        50
N                   10
E range min (V)     -10.000
E range max (V)     10.000
I Range             Auto
I Range min         Unset
I Range max         Unset
I Range init        Unset
Bandwidth           8
E2 (V)              -0.600
vs.                 Ref
nc cycles           2
Reverse Scan        1
Ef (V)              0.000
vs.                 Eoc

mode	ox/red	error	control changes	counter inc.	time/s	control/V	Ewe/V	<I>/mA	cycle number	(Q-Qo)/C	P/W
2	1	0	0	1	421.616	-0.60016	-0.600352	-0.0141162	2	-5.07142e-06	8.47469e-06
2	1	0	0	1	421.628	-0.588332	-0.588574	-0.0115005	2	-5.22106e-06	6.76889e-06
2	1	0	1	1	421.642	-0.574937	-0.575169	-0.00994692	2	-5.36371e-06	5.72116e-06
2	1	0	1	1	421.655	-0.561742	-0.561981	-0.00883884	2	-5.48716e-06	4.96725e-06
2	1	0	0	1	421.668	-0.548347	-0.548568	-0.00790572	2	-5.59892e-06	4.33682e-06
2	1	0	1	1	421.682	-0.534952	-0.535158	-0.00710337	2	-5.69911e-06	3.80142e-06
2	1	0	1	1	421.695	-0.521757	-0.521991	-0.00639644	2	-5.7879e-06	3.33889e-06
2	1	0	0	1	421.708	-0.508362	-0.508623	-0.00575404	2	-5.86901e-06	2.92664e-06
2	1	0	1	1	421.722	-0.494967	-0.495193	-0.00516115	2	-5.94185e-06	2.55577e-06
2	1	0	1	1	421.735	-0.481772	-0.482012	-0.00463605	2	-6.00625e-06	2.23463e-06
2	1	0	0	1	421.748	-0.468377	-0.468608	-0.00414105	2	-6.06479e-06	1.94053e-06
2	1	0	1	1	421.762	-0.454982	-0.455196	-0.0036836	2	-6.11695e-06	1.67676e-06
2	1	0	1	1	421.775	-0.441787	-0.442007	-0.00327429	2	-6.16263e-06	1.44726e-06
2	1	0	0	1	421.788	-0.428326	-0.428552	-0.00287364	2	-6.20361e-06	1.23151e-06
2	1	0	0	1	421.801	-0.415131	-0.415371	-0.00252399	2	-6.23903e-06	1.04839e-06
2	1	0	1	1	421.815	-0.401736	-0.401985	-0.00218599	2	-6.27036e-06	8.78735e-07
2	1	0	0	1	421.828	-0.388341	-0.388584	-0.00186934	2	-6.29731e-06	7.26396e-07
2	1	0	0	1	421.872	-0.344758	-0.344993	-0.000948463	2	-6.36709e-06	3.27213e-07
2	1	0	1	1	421.885	-0.331363	-0.331576	-0.000679816	2	-6.37784e-06	2.25411e-07
2	1	0	1	1	421.898	-0.318168	-0.31838	-0.000424307	2	-6.38497e-06	1.35091e-07
2	1	0	0	1	421.912	-0.304773	-0.304956	-0.000163195	2	-6.38876e-06	4.97672e-08
2	1	0	1	1	421.925	-0.291378	-0.291556	9.47037e-05	2	-6.38909e-06	2.76115e-08
2	1	0	1	1	421.938	-0.278183	-0.278366	0.000347722	2	-6.386e-06	9.67942e-08
2	1	0	0	1	421.952	-0.264788	-0.264986	0.000609761	2	-6.37945e-06	1.61578e-07
2	1	0	0	1	421.965	-0.251527	-0.251704	0.000877563	2	-6.36952e-06	2.20886e-07
2	1	0	1	1	421.978	-0.238132	-0.238323	0.00113283	2	-6.35591e-06	2.69981e-07
2	1	0	0	1	421.992	-0.224737	-0.224958	0.00137364	2	-6.33898e-06	3.09013e-07
2	1	0	0	1	422.005	-0.211542	-0.211728	0.00159438	2	-6.31923e-06	3.37575e-07
2	1	0	1	1	422.018	-0.198147	-0.198319	0.00178914	2	-6.29639e-06	3.54821e-07
2	1	0	0	1	422.032	-0.184752	-0.18495	0.00195234	2	-6.27116e-06	3.61087e-07
2	1	0	0	1	422.045	-0.171557	-0.171732	0.00210425	2	-6.24423e-06	3.61367e-07
2	1	0	1	1	422.058	-0.158162	-0.158329	0.00223701	2	-6.21501e-06	3.54183e-07
2	1	0	0	1	422.072	-0.144767	-0.144959	0.00235556	2	-6.1841e-06	3.4146e-07
2	1	0	0	1	422.085	-0.131572	-0.131736	0.00246227	2	-6.15217e-06	3.24368e-07
2	1	0	1	1	422.098	-0.118177	-0.118313	0.00255756	2	-6.11841e-06	3.02593e-07
2	1	0	0	1	422.112	-0.104783	-0.104934	0.00264079	2	-6.08344e-06	2.77107e-07
2	1	0	0	1	422.125	-0.0915875	-0.0917498	0.00271701	2	-6.04798e-06	2.49285e-07
2	1	0	1	1	422.138	-0.078126	-0.0783157	0.00279268	2	-6.01098e-06	2.18711e-07
2	1	0	1	1	422.152	-0.064931	-0.0651152	0.00284406	2	-5.97362e-06	1.85192e-07
2	1	0	0	1	422.165	-0.0515361	-0.0517376	0.00289353	2	-5.93505e-06	1.49704e-07
2	1	0	1	1	422.178	-0.0381412	-0.0383152	0.00293895	2	-5.89586e-06	1.12606e-07
2	1	0	1	1	422.192	-0.0249463	-0.025096	0.00296392	2	-5.85678e-06	7.43826e-08
2	1	0	0	1	422.205	-0.0115514	-0.0117373	0.00298141	2	-5.81682e-06	3.49936e-08
2	1	0	1	1	422.218	0.00184351	0.00168535	0.00299635	2	-5.77666e-06	5.04991e-09
2	1	0	1	1	422.232	0.0150385	0.0149143	0.00299957	2	-5.73697e-06	4.47364e-08
2	1	0	0	1	422.245	0.0284334	0.0282873	0.0029962	2	-5.69669e-06	8.47543e-08
2	1	0	1	1	422.258	0.0418283	0.0416819	0.0029928	2	-5.65645e-06	1.24746e-07
2	1	0	1	1	422.272	0.0550232	0.0549287	0.00299091	2	-5.61682e-06	1.64287e-07
2	1	0	0	1	422.285	0.0684181	0.0682877	0.00298399	2	-5.57666e-06	2.03769e-07
2	1	0	1	1	422.298	0.081813	0.0816878	0.0029853	2	-5.53656e-06	2.43862e-07
2	1	0	1	1	422.312	0.0950746	0.0949578	0.00299433	2	-5.49704e-06	2.84335e-07
2	0	0	0	1	422.322	0.0947858	0.0946659	0.00152365	2	-5.47117e-06	1.44238e-07
2	0	0	1	1	422.335	0.0813465	0.0812134	6.07259e-05	2	-5.4627e-06	4.93176e-09
2	0	0	1	1	422.348	0.0681515	0.0680127	-0.000516583	2	-5.46626e-06	3.51342e-08
2	0	0	0	1	422.362	0.0547567	0.0546276	-0.000882994	2	-5.47591e-06	4.82359e-08
2	0	0	1	1	422.375	0.0413618	0.0412087	-0.00116561	2	-5.48984e-06	4.80333e-08
2	0	0	1	1	422.388	0.0281668	0.0280112	-0.00139624	2	-5.50691e-06	3.91104e-08
2	0	0	0	1	422.402	0.0147719	0.0146296	-0.00160302	2	-5.52718e-06	2.34517e-08
2	0	0	1	1	422.415	0.00137703	0.00118579	-0.00180002	2	-5.55013e-06	2.13444e-09
2	0	0	1	1	422.428	-0.0118179	-0.0120211	-0.00197485	2	-5.57519e-06	2.374e-08
2	0	0	0	1	422.442	-0.0252128	-0.0254057	-0.0021425	2	-5.60293e-06	5.44317e-08
2	0	0	1	1	422.455	-0.0386077	-0.0388088	-0.00230895	2	-5.6329e-06	8.96076e-08
2	0	0	1	1	422.468	-0.0518027	-0.0520053	-0.00246635	2	-5.66456e-06	1.28263e-07
2	0	0	0	1	422.482	-0.0651976	-0.0653844	-0.0026197	2	-5.69879e-06	1.71288e-07
2	0	0	1	1	422.495	-0.0785925	-0.078794	-0.00277492	2	-5.73506e-06	2.18647e-07
2	0	0	1	1	422.508	-0.0918541	-0.0920365	-0.0029239	2	-5.77285e-06	2.69105e-07
2	0	0	0	1	422.522	-0.105249	-0.105438	-0.00307124	2	-5.81316e-06	3.23825e-07
2	0	0	0	1	422.535	-0.118444	-0.118632	-0.00322086	2	-5.85481e-06	3.82096e-07
2	0	0	1	1	422.548	-0.131839	-0.132042	-0.0033754	2	-5.89915e-06	4.45693e-07
2	0	0	0	1	422.562	-0.145234	-0.145441	-0.00352692	2	-5.94552e-06	5.1296e-07
2	0	0	0	1	422.575	-0.158429	-0.158624	-0.00367956	2	-5.99319e-06	5.83668e-07
2	0	0	1	1	422.588	-0.171824	-0.172035	-0.00383689	2	-6.0437e-06	6.6008e-07
2	0	0	0	1	422.602	-0.185219	-0.18545	-0.00399475	2	-6.09629e-06	7.40827e-07
2	0	0	0	1	422.615	-0.198413	-0.198615	-0.00415284	2	-6.1502e-06	8.24816e-07
2	0	0	1	1	422.628	-0.211808	-0.212042	-0.00433145	2	-6.20716e-06	9.1845e-07
2	0	0	0	1	422.642	-0.225203	-0.22544	-0.00451564	2	-6.26654e-06	1.01801e-06
2	0	0	0	1	422.655	-0.238398	-0.238616	-0.0047114	2	-6.32755e-06	1.12422e-06
2	0	0	1	1	422.668	-0.251793	-0.252013	-0.0049359	2	-6.39231e-06	1.24391e-06
2	0	0	1	1	422.682	-0.265055	-0.26528	-0.00518316	2	-6.45926e-06	1.37499e-06
2	0	0	0	1	422.695	-0.27845	-0.278643	-0.00544284	2	-6.53058e-06	1.51661e-06
2	0	0	1	1	422.708	-0.291845	-0.292037	-0.00573018	2	-6.60557e-06	1.67343e-06
2	0	0	1	1	422.722	-0.30504	-0.305265	-0.00601788	2	-6.68326e-06	1.83705e-06
2	0	0	0	1	422.735	-0.318434	-0.318692	-0.00631238	2	-6.76605e-06	2.0117e-06
2	0	0	1	1	422.748	-0.331829	-0.332064	-0.00659921	2	-6.85269e-06	2.19136e-06
2	0	0	1	1	422.762	-0.345024	-0.345282	-0.00687073	2	-6.94176e-06	2.37234e-06
2	0	0	0	1	422.775	-0.358419	-0.358674	-0.00712752	2	-7.0357e-06	2.55645e-06
2	0	0	1	1	422.788	-0.371814	-0.372061	-0.00736593	2	-7.13295e-06	2.74057e-06
2	0	0	1	1	422.802	-0.385009	-0.38529	-0.00759482	2	-7.23182e-06	2.92621e-06
2	0	0	0	1	422.815	-0.398404	-0.398677	-0.00781287	2	-7.33518e-06	3.11481e-06
2	0	0	1	1	422.828	-0.411799	-0.412049	-0.00803002	2	-7.44144e-06	3.30876e-06
2	0	0	1	1	422.842	-0.424994	-0.425275	-0.00825576	2	-7.54907e-06	3.51097e-06
2	0	0	0	1	422.855	-0.438455	-0.438707	-0.00850925	2	-7.66152e-06	3.73307e-06
2	0	0	0	1	422.868	-0.45165	-0.451865	-0.00875887	2	-7.77559e-06	3.95783e-06
2	0	0	1	1	422.882	-0.465045	-0.46528	-0.00904249	2	-7.895e-06	4.20729e-06
2	0	0	0	1	422.895	-0.47844	-0.478694	-0.0093557	2	-8.01839e-06	4.47852e-06
2	0	0	0	1	422.908	-0.491635	-0.491879	-0.00968833	2	-8.14419e-06	4.76549e-06
2	0	0	1	1	422.922	-0.50503	-0.505279	-0.0100539	2	-8.27659e-06	5.08001e-06
2	0	0	0	1	422.965	-0.548413	-0.548648	-0.0114273	2	-8.72804e-06	6.26957e-06
2	0	0	0	1	422.978	-0.561608	-0.561844	-0.0119151	2	-8.88232e-06	6.69446e-06
2	0	0	1	1	422.992	-0.575003	-0.575232	-0.012447	2	-9.04575e-06	7.15994e-06
2	0	0	0	1	423.005	-0.588398	-0.588626	-0.0130126	2	-9.21649e-06	7.65953e-06
2	0	0	1	1	423.017	-0.599827	-0.600024	-0.0135071	2	-9.36918e-06	8.10459e-06