Folder: CV/TAP_Report/Data/Res_growth (part 6)

File: mg6_2_2.mpt
EC-Lab ASCII FILE
Nb header lines : 54

Cyclic Voltammetry

Run on channel : 1 (SN 0696)
User :
Electrode connection : standard
Ewe ctrl range : min = -2.50 V, max = 2.50 V
Ewe,I filtering : 50 kHz
Channel : Grounded
Acquisition started on : 01/18/2017 14:30:28
Saved on :
	File : mg6_2.mpr
	Directory : H:\EC-Lab\Data\Resazurin Bulk 18-1-17\
	Host : 144.32.136.43
Device : SP-300 (SN 0182)
Address : USB
EC-Lab for windows v10.44 (software)
Internet server v10.44 (firmware)
Command interpretor v10.44 (firmware)
Electrode material :
Initial state :
Electrolyte :
Comments :
Cable : standard
Reference electrode : SCE Saturated Calomel Electrode (0.241 V)
Electrode surface area : 0.001 cm²
Characteristic mass : 0.001 g
Equivalent Weight : 0.000 g/eq.
Density : 0.000 g/cm3
Ei (V)              0.000
vs.                 Eoc
dE/dt               100.000
dE/dt unit          mV/s
E1 (V)              0.000
vs.                 Ref
Step percent        50
N                   10
E range min (V)     -2.500
E range max (V)     2.500
I Range             Auto
I Range min         Unset
I Range max         Unset
I Range init        Unset
Bandwidth           8
E2 (V)              -0.900
vs.                 Ref
nc cycles           2
Reverse Scan        1
Ef (V)              0.000
vs.                 Eoc

mode	ox/red	error	control changes	counter inc.	time/s	control/V	Ewe/V	<I>/mA	cycle number	(Q-Qo)/C	P/W
2	1	0	0	1	17.9966	-0.0481172	-0.0488946	0.0217489	2	-0.000575755	1.0634e-06
2	1	0	1	1	18.1321	-0.034572	-0.0353283	0.0201122	2	-0.000572886	7.10529e-07
2	1	0	1	1	18.2721	-0.020577	-0.0213304	0.0186968	2	-0.000570137	3.98811e-07
2	1	0	1	1	18.4121	-0.00658204	-0.007352	0.0176177	2	-0.000567562	1.29525e-07
2	0	0	0	1	18.5435	-0.00658204	-0.00739992	0.0119023	2	-0.000565543	8.8076e-08
2	0	0	0	1	18.6835	-0.020577	-0.0213906	0.00846476	2	-0.000564185	1.81066e-07
2	0	0	0	1	18.8235	-0.034572	-0.0353883	0.00635426	2	-0.000563197	2.24866e-07
2	0	0	0	1	18.9634	-0.0485693	-0.0493802	0.00472383	2	-0.000562468	2.33264e-07
2	0	0	1	1	19.1333	-0.065561	-0.0663826	0.00289062	2	-0.000561831	1.91887e-07
2	0	0	1	1	19.2733	-0.079556	-0.0803771	0.00180707	2	-0.000561505	1.45247e-07
2	0	0	1	1	19.4133	-0.093551	-0.094378	0.000813707	2	-0.000561324	7.6796e-08
2	0	0	0	1	19.5531	-0.107546	-0.108359	-0.000138544	2	-0.00056128	1.50124e-08
2	0	0	0	1	19.6931	-0.121541	-0.122386	-0.00106699	2	-0.000561366	1.30585e-07
2	0	0	0	1	19.8331	-0.135536	-0.136354	-0.00203739	2	-0.000561585	2.77808e-07
2	0	0	0	1	19.9731	-0.149531	-0.15035	-0.00305155	2	-0.000561942	4.588e-07
2	0	0	1	1	20.1129	-0.163526	-0.164375	-0.00415441	2	-0.000562447	6.82879e-07
2	0	0	1	1	20.2529	-0.177521	-0.178383	-0.00535677	2	-0.000563113	9.55555e-07
2	0	0	1	1	20.3929	-0.191516	-0.192386	-0.00662981	2	-0.000563951	1.27548e-06
2	0	0	1	1	20.5329	-0.205511	-0.20637	-0.0079178	2	-0.00056497	1.63399e-06
2	0	0	0	1	20.6727	-0.219506	-0.220406	-0.00922133	2	-0.00056617	2.03244e-06
2	0	0	1	1	20.8437	-0.2366	-0.237457	-0.0103802	2	-0.000567872	2.46485e-06
2	0	0	1	1	20.9837	-0.250595	-0.251452	-0.0114935	2	-0.000569444	2.89007e-06
2	0	0	1	1	21.1237	-0.26459	-0.265448	-0.0124871	2	-0.000571163	3.31468e-06
2	0	0	0	1	21.2635	-0.278585	-0.279441	-0.0134962	2	-0.000573019	3.77138e-06
2	0	0	0	1	21.4035	-0.29258	-0.293414	-0.0144066	2	-0.00057501	4.22711e-06
2	0	0	0	1	21.5435	-0.306575	-0.307445	-0.0153867	2	-0.000577131	4.73055e-06
2	0	0	0	1	21.6835	-0.32057	-0.32142	-0.0162671	2	-0.000579383	5.22858e-06
2	0	0	1	1	21.8233	-0.334565	-0.335415	-0.0172442	2	-0.000581765	5.78397e-06
2	0	0	1	1	21.9633	-0.34856	-0.349406	-0.0181599	2	-0.000584283	6.34518e-06
2	0	0	1	1	22.1033	-0.362555	-0.363411	-0.0191452	2	-0.000586935	6.95758e-06
2	0	0	1	1	22.2433	-0.37655	-0.3774	-0.0200285	2	-0.000589716	7.55876e-06
2	0	0	0	1	22.3831	-0.390545	-0.391395	-0.0208927	2	-0.000592614	8.1773e-06
2	0	0	0	1	22.5231	-0.40454	-0.405401	-0.0217351	2	-0.000595632	8.81141e-06
2	0	0	0	1	22.6631	-0.418535	-0.419398	-0.0224023	2	-0.000598756	9.39549e-06
2	0	0	0	1	22.8031	-0.43253	-0.433383	-0.0231164	2	-0.00060198	1.00183e-05
2	0	0	1	1	22.9429	-0.446525	-0.447396	-0.0237596	2	-0.000605294	1.063e-05
2	0	0	1	1	23.0829	-0.46052	-0.46136	-0.0243674	2	-0.000608703	1.12422e-05
2	0	0	1	1	23.2229	-0.474515	-0.475376	-0.0250272	2	-0.0006122	1.18973e-05
2	0	0	1	1	23.3629	-0.48851	-0.489367	-0.0256863	2	-0.000615786	1.257e-05
2	0	0	0	1	23.5027	-0.502505	-0.503365	-0.0262763	2	-0.000619455	1.32266e-05
2	0	0	0	1	23.6427	-0.5165	-0.517362	-0.0269359	2	-0.00062322	1.39356e-05
2	0	0	0	1	23.7827	-0.530495	-0.531357	-0.0276304	2	-0.000627078	1.46816e-05
2	0	0	0	1	23.9227	-0.54449	-0.545346	-0.0283094	2	-0.000631032	1.54384e-05
2	0	0	1	1	24.0625	-0.558485	-0.559354	-0.0291203	2	-0.000635083	1.62886e-05
2	0	0	1	1	24.2025	-0.57248	-0.57333	-0.0299148	2	-0.000639251	1.71511e-05
2	0	0	1	1	24.3425	-0.586475	-0.587343	-0.0308233	2	-0.000643539	1.81039e-05
2	0	0	1	1	24.4825	-0.60047	-0.60135	-0.0318267	2	-0.00064796	1.9139e-05
2	0	0	0	1	24.6223	-0.614465	-0.615314	-0.0329658	2	-0.000652527	2.02843e-05
2	0	0	0	1	24.7623	-0.62846	-0.629334	-0.034369	2	-0.000657275	2.16296e-05
2	0	0	0	1	24.9023	-0.642455	-0.643337	-0.0358552	2	-0.000662224	2.3067e-05
2	0	0	0	1	25.0423	-0.65645	-0.657329	-0.0377242	2	-0.000667409	2.47972e-05
2	0	0	1	1	25.1821	-0.670445	-0.671321	-0.0398976	2	-0.000672866	2.67841e-05
2	0	0	1	1	25.3221	-0.68444	-0.68531	-0.0424469	2	-0.00067866	2.90893e-05
2	0	0	1	1	25.4621	-0.698435	-0.699295	-0.0454824	2	-0.000684847	3.18056e-05
2	0	0	1	1	25.6021	-0.71243	-0.713304	-0.0491889	2	-0.000691504	3.50866e-05
2	0	0	0	1	25.7419	-0.726425	-0.7273	-0.0536188	2	-0.000698719	3.8997e-05
2	0	0	0	1	25.8819	-0.74042	-0.741303	-0.0589034	2	-0.000706624	4.36653e-05
2	0	0	0	1	26.0219	-0.754415	-0.755274	-0.0652209	2	-0.000715339	4.92597e-05
2	0	0	0	1	26.1619	-0.76841	-0.769289	-0.0724732	2	-0.000725	5.57529e-05
2	0	0	1	1	26.3017	-0.782405	-0.783301	-0.0808195	2	-0.00073574	6.3306e-05
2	0	0	1	1	26.4417	-0.7964	-0.797286	-0.0903019	2	-0.000747741	7.19965e-05
2	0	0	1	1	26.5817	-0.810395	-0.811291	-0.100997	2	-0.000761153	8.19381e-05
2	0	0	0	1	26.7527	-0.827489	-0.828332	-0.115414	2	-0.000779657	9.56012e-05
2	0	0	1	1	26.8925	-0.841484	-0.842334	-0.12958	2	-0.000796855	0.00010915
2	0	0	1	1	27.0325	-0.855479	-0.856331	-0.145583	2	-0.000816185	0.000124668
2	0	0	1	1	27.1725	-0.869474	-0.870306	-0.164043	2	-0.000837927	0.000142768
2	0	0	1	1	27.3125	-0.883469	-0.884323	-0.1853	2	-0.000862443	0.000163865
2	0	0	0	1	27.4523	-0.897464	-0.898308	-0.209992	2	-0.000890131	0.000188638
2	1	0	0	0	27.5839	-0.889467	-0.890301	-0.184409	2	-0.000916481	0.000164179
2	1	0	1	0	27.7237	-0.875472	-0.876319	-0.15609	2	-0.000940104	0.000136784
2	1	0	1	0	27.8637	-0.861476	-0.862314	-0.132395	2	-0.000960147	0.000114166
2	1	0	1	0	28.0037	-0.847481	-0.848315	-0.112617	2	-0.000977166	9.55351e-05
2	1	0	1	0	28.1437	-0.833487	-0.834318	-0.095764	2	-0.000991628	7.98976e-05
2	1	0	0	0	28.2835	-0.819492	-0.82034	-0.0813896	2	-0.00100389	6.67671e-05
2	1	0	0	0	28.4235	-0.805497	-0.806336	-0.069169	2	-0.00101432	5.57735e-05
2	1	0	0	0	28.5635	-0.791502	-0.792332	-0.058686	2	-0.00102315	4.64988e-05
2	1	0	0	0	28.7035	-0.777507	-0.77832	-0.049605	2	-0.00103063	3.86086e-05
2	1	0	0	0	28.8743	-0.760413	-0.761229	-0.040246	2	-0.00103823	3.06364e-05
[...]
2	1	0	1	0	29.2941	-0.718428	-0.719235	-0.0239817	2	-0.00105132	1.72485e-05
2	1	0	1	0	29.4341	-0.704433	-0.705231	-0.0201933	2	-0.00105437	1.42409e-05
2	1	0	1	0	29.5741	-0.690438	-0.69125	-0.0170597	2	-0.00105693	1.17925e-05
2	1	0	1	0	29.7141	-0.676443	-0.677236	-0.0143619	2	-0.00105909	9.72641e-06
2	1	0	0	0	29.8539	-0.662448	-0.663258	-0.0122112	2	-0.00106091	8.0992e-06
2	1	0	0	0	29.9939	-0.648453	-0.649244	-0.0104721	2	-0.00106246	6.79896e-06
2	1	0	0	0	30.1339	-0.634458	-0.635261	-0.00894867	2	-0.00106377	5.68474e-06
2	1	0	0	0	30.2739	-0.620463	-0.621266	-0.00775398	2	-0.0010649	4.81729e-06
2	1	0	1	0	30.4137	-0.606468	-0.607245	-0.00670805	2	-0.00106587	4.07343e-06
2	1	0	1	0	30.5537	-0.592473	-0.593256	-0.00579324	2	-0.00106671	3.43687e-06
2	1	0	1	0	30.6937	-0.578478	-0.57926	-0.00495247	2	-0.00106743	2.86877e-06
2	1	0	1	0	30.8637	-0.561484	-0.562268	-0.00390574	2	-0.00106817	2.19607e-06
2	1	0	0	0	31.0035	-0.547489	-0.548276	-0.0032215	2	-0.00106866	1.76627e-06
2	1	0	0	0	31.1435	-0.533494	-0.534279	-0.00257883	2	-0.00106907	1.37781e-06
2	1	0	0	0	31.2835	-0.519499	-0.520281	-0.00195266	2	-0.00106938	1.01593e-06
2	1	0	0	0	31.4235	-0.505504	-0.506278	-0.00134213	2	-0.00106961	6.79489e-07
2	1	0	1	0	31.5633	-0.491509	-0.49227	-0.000715415	2	-0.00106975	3.52178e-07
2	1	0	1	0	31.7033	-0.477514	-0.478284	-8.44272e-05	2	-0.00106981	4.03802e-08
2	1	0	1	0	31.8433	-0.463519	-0.464295	0.000555156	2	-0.00106977	2.57756e-07
2	1	0	1	0	31.9833	-0.449524	-0.450295	0.00121004	2	-0.00106965	5.44876e-07
2	1	0	0	0	32.1231	-0.435529	-0.436293	0.00189133	2	-0.00106943	8.25173e-07
2	1	0	0	0	32.2631	-0.421534	-0.422303	0.00255992	2	-0.00106912	1.08106e-06
2	1	0	0	0	32.4031	-0.407539	-0.408304	0.00330131	2	-0.00106871	1.34794e-06
2	1	0	0	0	32.5431	-0.393544	-0.3943	0.00400913	2	-0.0010682	1.5808e-06
2	1	0	1	0	32.6829	-0.379549	-0.380278	0.00475141	2	-0.00106758	1.80686e-06
2	1	0	1	0	32.8229	-0.365554	-0.3663	0.00550295	2	-0.00106686	2.01573e-06
2	1	0	1	0	32.9629	-0.351559	-0.3523	0.00624229	2	-0.00106604	2.19916e-06
2	1	0	1	0	33.1029	-0.337564	-0.3383	0.006991	2	-0.00106511	2.36505e-06
2	1	0	0	0	33.2427	-0.323569	-0.324316	0.00777929	2	-0.00106408	2.52295e-06
2	1	0	0	0	33.3827	-0.309574	-0.310327	0.00859582	2	-0.00106293	2.66752e-06
2	1	0	0	0	33.5227	-0.295579	-0.296295	0.00945519	2	-0.00106167	2.80153e-06
2	1	0	1	0	33.6937	-0.278485	-0.279254	0.0104116	2	-0.00105995	2.90748e-06
2	1	0	0	0	33.8335	-0.26449	-0.26525	0.0115294	2	-0.00105838	3.05816e-06
2	1	0	0	0	33.9735	-0.250495	-0.25125	0.0127798	2	-0.00105664	3.21092e-06
2	1	0	0	0	34.1135	-0.2365	-0.237243	0.0142228	2	-0.00105471	3.37425e-06
2	1	0	0	0	34.2535	-0.222505	-0.223266	0.0156841	2	-0.00105258	3.50173e-06
2	1	0	1	0	34.3933	-0.20851	-0.209274	0.0173287	2	-0.00105024	3.62644e-06
2	1	0	1	0	34.5333	-0.194515	-0.195275	0.0189944	2	-0.00104766	3.70913e-06
2	1	0	1	0	34.6733	-0.18052	-0.181271	0.0207207	2	-0.00104484	3.75607e-06
2	1	0	1	0	34.8133	-0.166525	-0.16728	0.0225133	2	-0.00104178	3.76603e-06
2	1	0	0	0	34.9531	-0.15253	-0.153303	0.0244078	2	-0.00103846	3.74179e-06
2	1	0	0	0	35.0931	-0.138535	-0.139283	0.0263147	2	-0.00103488	3.66518e-06
2	1	0	0	0	35.2331	-0.12454	-0.125314	0.0278827	2	-0.00103104	3.49408e-06
2	1	0	0	0	35.3731	-0.110545	-0.111278	0.02895	2	-0.00102702	3.2215e-06
2	1	0	1	0	35.5129	-0.0965499	-0.0972936	0.0290695	2	-0.00102291	2.82828e-06
2	1	0	1	0	35.6529	-0.0825549	-0.083293	0.0283074	2	-0.00101885	2.3578e-06
2	1	0	1	0	35.7929	-0.0685599	-0.0693069	0.0268047	2	-0.00101494	1.85775e-06
2	1	0	1	0	35.9329	-0.0545649	-0.055319	0.0249588	2	-0.00101128	1.38069e-06
2	1	0	1	0	35.9923	-0.0486183	-0.0493638	0.0242318	2	-0.0010098	1.19617e-06

File: mg6_3_2.mpt
EC-Lab ASCII FILE
Nb header lines : 54

Cyclic Voltammetry

Run on channel : 1 (SN 0696)
User :
Electrode connection : standard
Ewe ctrl range : min = -2.50 V, max = 2.50 V
Ewe,I filtering : 50 kHz
Channel : Grounded
Acquisition started on : 01/18/2017 14:33:00
Saved on :
	File : mg6_3.mpr
	Directory : H:\EC-Lab\Data\Resazurin Bulk 18-1-17\
	Host : 144.32.136.43
Device : SP-300 (SN 0182)
Address : USB
EC-Lab for windows v10.44 (software)
Internet server v10.44 (firmware)
Command interpretor v10.44 (firmware)
Electrode material :
Initial state :
Electrolyte :
Comments :
Cable : standard
Reference electrode : SCE Saturated Calomel Electrode (0.241 V)
Electrode surface area : 0.001 cm²
Characteristic mass : 0.001 g
Equivalent Weight : 0.000 g/eq.
Density : 0.000 g/cm3
Ei (V)              0.000
vs.                 Eoc
dE/dt               100.000
dE/dt unit          mV/s
E1 (V)              0.000
vs.                 Ref
Step percent        50
N                   10
E range min (V)     -2.500
E range max (V)     2.500
I Range             Auto
I Range min         Unset
I Range max         Unset
I Range init        Unset
Bandwidth           8
E2 (V)              -0.900
vs.                 Ref
nc cycles           2
Reverse Scan        1
Ef (V)              0.000
vs.                 Eoc

mode	ox/red	error	control changes	counter inc.	time/s	control/V	Ewe/V	<I>/mA	cycle number	(Q-Qo)/C	Capacitance charge/µF	Capacitance discharge/µF	P/W
2	1	0	1	1	17.9986	-0.0758073	-0.0762319	0.024097	2	-0.000545905	0.000000000000000E+000	0.000000000000000E+000	1.83696e-06
2	1	0	0	1	18.1641	-0.0592632	-0.0596493	0.0224284	2	-0.000541989	235.312	0.000000000000000E+000	1.33784e-06
2	1	0	0	1	18.3341	-0.0422693	-0.0426304	0.0204351	2	-0.000538308	224.178	0.000000000000000E+000	8.71156e-07
2	1	0	0	1	18.5041	-0.0252754	-0.0256525	0.018735	2	-0.000534944	214.451	0.000000000000000E+000	4.80598e-07
2	1	0	1	1	18.6739	-0.00828143	-0.00865204	0.0175453	2	-0.000531829	205.905	0.000000000000000E+000	1.51803e-07
2	0	0	0	1	18.8325	-0.00758168	-0.00800364	0.011289	2	-0.000529424	238.891	0.000000000000000E+000	9.03529e-08
2	0	0	1	1	19.0023	-0.0245756	-0.0250038	0.00764635	2	-0.000527892	348.512	0.000000000000000E+000	1.91188e-07
2	0	0	1	1	19.1723	-0.0415695	-0.0419968	0.00539516	2	-0.000526835	553.283	0.000000000000000E+000	2.2658e-07
2	0	0	0	1	19.3733	-0.0616624	-0.0620943	0.00326343	2	-0.000525982	1399.19	0.000000000000000E+000	2.02641e-07
2	0	0	1	1	19.5431	-0.0786563	-0.0790994	0.00195525	2	-0.000525543	7049.63	0.000000000000000E+000	1.54659e-07
2	0	0	1	1	19.7131	-0.0956502	-0.0960945	0.000818736	2	-0.00052531	1029.26	0.000000000000000E+000	7.8676e-08
2	0	0	1	1	19.8831	-0.112644	-0.113108	-0.000259334	2	-0.000525265	643.049	1.73834	2.93328e-08
2	0	0	1	1	20.0531	-0.129638	-0.130074	-0.0013593	2	-0.000525404	643.049	7.12245	1.76811e-07
2	0	0	0	1	20.2229	-0.146632	-0.147075	-0.0024799	2	-0.00052573	643.049	12.6344	3.64732e-07
2	0	0	0	1	20.3929	-0.163626	-0.164075	-0.00370765	2	-0.000526257	643.049	18.3944	6.08334e-07
2	0	0	0	1	20.5629	-0.18062	-0.181096	-0.0050514	2	-0.000527003	643.049	24.4705	9.14788e-07
2	0	0	1	1	20.7327	-0.197614	-0.198099	-0.00644241	2	-0.000527981	643.049	30.8475	1.27623e-06
2	0	0	1	1	20.9027	-0.214608	-0.21511	-0.0078326	2	-0.000529199	643.049	37.4376	1.68487e-06
2	0	0	1	1	21.0727	-0.231602	-0.232097	-0.00914181	2	-0.000530647	643.049	44.0772	2.12179e-06
2	0	0	1	1	21.2735	-0.251694	-0.252164	-0.0102714	2	-0.000532624	643.049	51.7157	2.59007e-06
2	0	0	1	1	21.4435	-0.268688	-0.26916	-0.0112799	2	-0.000534497	643.049	57.7058	3.0361e-06
2	0	0	1	1	21.6135	-0.285682	-0.286145	-0.0122274	2	-0.000536537	643.049	63.4838	3.49882e-06
2	0	0	0	1	21.7833	-0.302676	-0.303147	-0.0131604	2	-0.000538735	643.049	69.0516	3.98954e-06
2	0	0	0	1	21.9533	-0.31967	-0.32015	-0.0141072	2	-0.000541097	643.049	74.4977	4.51641e-06
2	0	0	0	1	22.1233	-0.336664	-0.337119	-0.0151286	2	-0.000543623	643.049	79.8683	5.10014e-06
2	0	0	0	1	22.2933	-0.353658	-0.354108	-0.0161122	2	-0.000546319	643.049	85.1906	5.70545e-06
2	0	0	1	1	22.4631	-0.370652	-0.371104	-0.0171308	2	-0.000549185	643.049	90.4619	6.3573e-06
2	0	0	1	1	22.6331	-0.387646	-0.388084	-0.0180792	2	-0.000552219	643.049	95.6982	7.01624e-06
2	0	0	1	1	22.8031	-0.40464	-0.405082	-0.0189707	2	-0.000555411	643.049	100.863	7.68467e-06
2	0	0	0	1	22.9729	-0.421634	-0.422103	-0.0198135	2	-0.000558749	643.049	105.925	8.36332e-06
2	0	0	0	1	23.1429	-0.438628	-0.439095	-0.0206653	2	-0.000562231	643.049	110.909	9.07405e-06
2	0	0	0	1	23.3129	-0.455622	-0.456078	-0.0214471	2	-0.00056585	643.049	115.807	9.78154e-06
2	0	0	1	1	23.4827	-0.472616	-0.473083	-0.0222369	2	-0.000569599	643.049	120.593	1.05199e-05
2	0	0	1	1	23.6527	-0.489609	-0.490074	-0.0229712	2	-0.000573484	643.049	125.313	1.12576e-05
2	0	0	1	1	23.8227	-0.506603	-0.507073	-0.0238059	2	-0.0005775	643.049	129.958	1.20713e-05
2	0	0	1	1	23.9926	-0.52359	-0.524059	-0.0246109	2	-0.000581646	643.049	134.542	1.28975e-05
2	0	0	0	1	24.1625	-0.540591	-0.541088	-0.0253361	2	-0.000585927	643.049	139.06	1.3709e-05
2	0	0	0	1	24.3325	-0.557585	-0.558061	-0.0262259	2	-0.00059035	643.049	143.571	1.46356e-05
2	0	0	0	1	24.5025	-0.574579	-0.575081	-0.0271802	2	-0.000594927	643.049	148.074	1.56308e-05
2	0	0	1	1	24.6723	-0.591573	-0.592044	-0.0282666	2	-0.000599672	643.049	152.624	1.67351e-05
2	0	0	1	1	24.8423	-0.608567	-0.60904	-0.0295364	2	-0.000604623	643.049	157.271	1.79889e-05
2	0	0	1	1	25.0123	-0.625561	-0.626027	-0.0311186	2	-0.000609815	643.049	162.084	1.94811e-05
2	0	0	0	1	25.1821	-0.642555	-0.643027	-0.0330191	2	-0.000615295	643.049	167.128	2.12322e-05
2	0	0	0	1	25.3521	-0.659549	-0.660023	-0.0353745	2	-0.000621143	643.049	172.537	2.3348e-05
2	0	0	0	1	25.5221	-0.676543	-0.677021	-0.0383123	2	-0.000627439	643.049	178.411	2.59383e-05
2	0	0	1	1	25.6919	-0.693537	-0.694002	-0.0419582	2	-0.000634285	643.049	184.897	2.91191e-05
2	0	0	1	1	25.8619	-0.710531	-0.710989	-0.0465991	2	-0.000641839	643.049	192.201	3.31314e-05
2	0	0	1	1	26.0319	-0.727524	-0.728002	-0.0523898	2	-0.000650279	643.049	200.533	3.81399e-05
2	0	0	1	1	26.2019	-0.744518	-0.745004	-0.059623	2	-0.000659826	643.049	210.176	4.44194e-05
2	0	0	0	1	26.3717	-0.761512	-0.761988	-0.0684096	2	-0.000670718	643.049	221.395	5.21273e-05
2	0	0	0	1	26.5417	-0.778506	-0.778983	-0.0788001	2	-0.000683248	643.049	234.498	6.1384e-05
2	0	0	0	1	26.7117	-0.7955	-0.795958	-0.0908846	2	-0.000697687	643.049	249.752	7.23403e-05
2	0	0	0	1	26.9125	-0.815593	-0.816009	-0.107081	2	-0.000717573	643.049	270.92	8.73794e-05
2	0	0	0	1	27.0825	-0.832587	-0.832999	-0.123737	2	-0.000737281	643.049	291.727	0.000103073
2	0	0	0	1	27.2525	-0.849581	-0.849979	-0.143169	2	-0.000760059	643.049	315.745	0.000121691
2	0	0	1	1	27.4223	-0.866575	-0.866984	-0.16627	2	-0.000786413	643.049	343.416	0.000144154
2	0	0	1	1	27.5923	-0.883569	-0.883973	-0.193622	2	-0.000817067	643.049	375.452	0.000171156
2	1	0	0	0	27.7572	-0.900013	-0.900426	-0.22509	2	-0.000851667	643.049	411.405	0.000202677
2	1	0	1	0	27.9227	-0.883469	-0.883878	-0.17865	2	-0.000884503	643.049	462.465	0.000157905
2	1	0	1	0	28.0927	-0.866475	-0.866895	-0.145096	2	-0.000911765	643.049	508.762	0.000125783
2	1	0	0	0	28.2625	-0.849481	-0.849903	-0.118035	2	-0.000933886	643.049	550.289	0.000100319
2	1	0	0	0	28.4325	-0.832487	-0.832904	-0.0959315	2	-0.000951888	643.049	588.116	7.99017e-05
[...]
2	1	0	1	0	29.3131	-0.744418	-0.74483	-0.0306342	2	-0.00100246	643.049	749.384	2.28173e-05
2	1	0	1	0	29.4831	-0.727424	-0.7278	-0.0240874	2	-0.00100705	643.049	777.444	1.75308e-05
2	1	0	1	0	29.6531	-0.710431	-0.710823	-0.0188546	2	-0.00101064	643.049	805.369	1.34023e-05
2	1	0	1	0	29.8231	-0.693437	-0.693837	-0.0146186	2	-0.00101343	643.049	833.562	1.01429e-05
2	1	0	0	0	29.9929	-0.676443	-0.676821	-0.0112538	2	-0.00101557	643.049	862.362	7.61681e-06
2	1	0	0	0	30.1629	-0.659449	-0.659849	-0.0086459	2	-0.00101722	643.049	891.97	5.70499e-06
2	1	0	0	0	30.3329	-0.642455	-0.642848	-0.00660922	2	-0.00101846	643.049	922.777	4.24872e-06
2	1	0	1	0	30.5027	-0.625461	-0.625844	-0.00500604	2	-0.0010194	643.049	955.025	3.133e-06
2	1	0	0	0	30.7037	-0.605368	-0.605748	-0.00333542	2	-0.00102022	643.049	995.294	2.02043e-06
2	1	0	0	0	30.8737	-0.588374	-0.588754	-0.00233353	2	-0.00102069	643.049	1031.54	1.37387e-06
2	1	0	1	0	31.0435	-0.57138	-0.571762	-0.00146992	2	-0.00102101	643.049	1070.12	8.40442e-07
2	1	0	1	0	31.2135	-0.554386	-0.554766	-0.000728588	2	-0.0010212	643.049	1111.34	4.04196e-07
2	1	0	1	0	31.3835	-0.537392	-0.537769	-3.26609e-05	2	-0.00102126	643.049	1155.54	1.7564e-08
2	1	0	0	0	31.5533	-0.520398	-0.520766	0.00066654	2	-0.0010212	46.2277	1155.54	3.47112e-07
2	1	0	0	0	31.7233	-0.503405	-0.503766	0.00133561	2	-0.00102103	48.4677	1155.54	6.72834e-07
2	1	0	0	0	31.8933	-0.486411	-0.486763	0.00196637	2	-0.00102075	51.168	1155.54	9.57155e-07
2	1	0	0	0	32.0633	-0.469417	-0.469784	0.0026647	2	-0.00102035	54.3869	1155.54	1.25184e-06
2	1	0	1	0	32.2331	-0.452423	-0.452791	0.00334544	2	-0.00101984	58.2082	1155.54	1.51478e-06
2	1	0	1	0	32.4031	-0.435429	-0.435795	0.00406814	2	-0.00101921	62.7256	1155.54	1.77287e-06
2	1	0	1	0	32.5731	-0.418435	-0.418804	0.00479512	2	-0.00101845	68.0462	1155.54	2.00822e-06
2	1	0	0	0	32.7429	-0.401441	-0.401804	0.00555354	2	-0.00101757	74.3131	1155.54	2.23143e-06
2	1	0	0	0	32.9129	-0.384447	-0.384811	0.00631276	2	-0.00101656	81.6872	1155.54	2.42922e-06
2	1	0	0	0	33.0829	-0.367453	-0.367788	0.00708517	2	-0.00101542	90.3757	1155.54	2.60584e-06
2	1	0	1	0	33.2527	-0.350459	-0.350801	0.00784769	2	-0.00101415	100.602	1155.54	2.75297e-06
2	1	0	1	0	33.4227	-0.333465	-0.333799	0.00864032	2	-0.00101275	112.698	1155.54	2.88413e-06
2	1	0	1	0	33.5927	-0.316471	-0.316821	0.00942952	2	-0.00101121	127.049	1155.54	2.98747e-06
2	1	0	1	0	33.7935	-0.296378	-0.296757	0.0102405	2	-0.00100921	147.663	1155.54	3.03894e-06
2	1	0	1	0	33.9635	-0.279385	-0.279761	0.0113173	2	-0.00100734	169.003	1155.54	3.16613e-06
2	1	0	1	0	34.1335	-0.262391	-0.262771	0.0124722	2	-0.00100529	195.235	1155.54	3.27735e-06
2	1	0	1	0	34.3035	-0.245397	-0.245767	0.0139244	2	-0.00100301	228.069	1155.54	3.42216e-06
2	1	0	0	0	34.4733	-0.228403	-0.228795	0.015478	2	-0.00100047	269.848	1155.54	3.54129e-06
2	1	0	0	0	34.6433	-0.211409	-0.211786	0.0172239	2	-0.000997649	324.278	1155.54	3.64778e-06
2	1	0	0	0	34.8133	-0.194415	-0.194806	0.0190273	2	-0.000994528	396.768	1155.54	3.70665e-06
2	1	0	1	0	34.9831	-0.177421	-0.177795	0.020836	2	-0.000991103	496.641	1155.54	3.70454e-06
2	1	0	1	0	35.1531	-0.160427	-0.160779	0.0226583	2	-0.000987361	640.469	1155.54	3.64298e-06
2	1	0	1	0	35.3231	-0.143433	-0.143802	0.0245505	2	-0.0009833	861.012	1155.54	3.53041e-06
2	1	0	0	0	35.4929	-0.126439	-0.126785	0.0262449	2	-0.000978937	1236.47	1155.54	3.32746e-06
2	1	0	0	0	35.6629	-0.109445	-0.109804	0.0272691	2	-0.000974336	1997.84	1155.54	2.99425e-06
2	1	0	0	0	35.8329	-0.0924513	-0.0928027	0.0271332	2	-0.000969655	4327.48	1155.54	2.51803e-06
2	1	0	1	0	35.9982	-0.0759072	-0.0762395	0.0259355	2	-0.000965214	9.97527e+06	1155.54	1.97731e-06