Folder: CV/TAP_Report/Data/Res_growth (part 3)

File: mg4_2_2.mpt
EC-Lab ASCII FILE
Nb header lines : 54

Cyclic Voltammetry

Run on channel : 1 (SN 0696)
User :
Electrode connection : standard
Ewe ctrl range : min = -2.50 V, max = 2.50 V
Ewe,I filtering : 50 kHz
Channel : Grounded
Acquisition started on : 01/18/2017 14:49:25
Saved on :
	File : mg4_2.mpr
	Directory : H:\EC-Lab\Data\Resazurin Bulk 18-1-17\
	Host : 144.32.136.43
Device : SP-300 (SN 0182)
Address : USB
EC-Lab for windows v10.44 (software)
Internet server v10.44 (firmware)
Command interpretor v10.44 (firmware)
Electrode material :
Initial state :
Electrolyte :
Comments :
Cable : standard
Reference electrode : SCE Saturated Calomel Electrode (0.241 V)
Electrode surface area : 0.001 cm²
Characteristic mass : 0.001 g
Equivalent Weight : 0.000 g/eq.
Density : 0.000 g/cm3
Ei (V)              0.000
vs.                 Eoc
dE/dt               100.000
dE/dt unit          mV/s
E1 (V)              0.000
vs.                 Ref
Step percent        50
N                   10
E range min (V)     -2.500
E range max (V)     2.500
I Range             Auto
I Range min         Unset
I Range max         Unset
I Range init        Unset
Bandwidth           8
E2 (V)              -0.900
vs.                 Ref
nc cycles           2
Reverse Scan        1
Ef (V)              0.000
vs.                 Eoc

mode	ox/red	error	control changes	counter inc.	time/s	control/V	Ewe/V	<I>/mA	cycle number	(Q-Qo)/C	P/W
2	1	0	1	1	17.9956	-0.0277245	-0.0281234	0.0122438	2	-0.000735646	3.44338e-07
2	1	0	0	1	18.1311	-0.0141793	-0.0145581	0.0118172	2	-0.000733975	1.72036e-07
2	1	0	0	1	18.2691	-0.000384255	-0.000788604	0.0115138	2	-0.000732326	9.07981e-09
2	0	0	0	1	18.3987	-0.0125799	-0.0129904	0.00574175	2	-0.000731402	7.45875e-08
2	0	0	0	1	18.5695	-0.0296738	-0.0300993	0.0033323	2	-0.000730653	1.003e-07
2	0	0	0	1	18.7095	-0.0436688	-0.0440936	0.00219748	2	-0.000730272	9.68949e-08
2	0	0	0	1	18.8495	-0.0576638	-0.0580871	0.00130411	2	-0.000730032	7.57519e-08
2	0	0	0	1	18.9895	-0.0716588	-0.0720945	0.000594481	2	-0.000729902	4.28588e-08
2	0	0	1	1	19.1293	-0.0856538	-0.086089	-2.62473e-05	2	-0.000729864	2.2596e-09
2	0	0	1	1	19.2693	-0.0996488	-0.10009	-0.000553775	2	-0.000729906	5.54273e-08
2	0	0	1	1	19.4093	-0.113644	-0.114089	-0.00107548	2	-0.000730021	1.22701e-07
2	0	0	1	1	19.5493	-0.127639	-0.128072	-0.00155998	2	-0.000730206	1.99789e-07
2	0	0	0	1	19.6891	-0.141634	-0.142081	-0.00207546	2	-0.000730461	2.94883e-07
2	0	0	0	1	19.8291	-0.155629	-0.156078	-0.00265111	2	-0.000730793	4.1378e-07
2	0	0	0	1	19.9691	-0.169624	-0.17011	-0.00327202	2	-0.000731209	5.56603e-07
2	0	0	0	1	20.1091	-0.183619	-0.18408	-0.00406007	2	-0.000731723	7.47379e-07
2	0	0	1	1	20.2489	-0.197614	-0.198091	-0.00502035	2	-0.000732356	9.94485e-07
2	0	0	1	1	20.3889	-0.211609	-0.212092	-0.00618488	2	-0.000733138	1.31176e-06
2	0	0	1	1	20.5289	-0.225604	-0.226089	-0.00765336	2	-0.000734104	1.73034e-06
2	0	0	1	1	20.6689	-0.239599	-0.240086	-0.00939205	2	-0.000735294	2.2549e-06
2	0	0	1	1	20.8397	-0.256693	-0.257147	-0.0116167	2	-0.000737104	2.98719e-06
2	0	0	1	1	20.9797	-0.270688	-0.271143	-0.0138429	2	-0.00073892	3.75341e-06
2	0	0	1	1	21.1197	-0.284683	-0.285134	-0.0160827	2	-0.000741051	4.58573e-06
2	0	0	1	1	21.2597	-0.298678	-0.29913	-0.0183415	2	-0.000743499	5.48648e-06
2	0	0	0	1	21.3995	-0.312673	-0.313109	-0.020601	2	-0.000746262	6.45036e-06
2	0	0	0	1	21.5395	-0.326668	-0.327117	-0.0228245	2	-0.000749343	7.4663e-06
2	0	0	0	1	21.6795	-0.340663	-0.341104	-0.0250997	2	-0.000752737	8.56162e-06
2	0	0	0	1	21.8195	-0.354658	-0.355117	-0.0273778	2	-0.00075645	9.72232e-06
2	0	0	1	1	21.9593	-0.368653	-0.36909	-0.0297098	2	-0.000760482	1.09656e-05
2	0	0	1	1	22.0993	-0.382648	-0.383105	-0.0320634	2	-0.00076485	1.22837e-05
2	0	0	1	1	22.2393	-0.396643	-0.397112	-0.0345035	2	-0.000769552	1.37017e-05
2	0	0	1	1	22.3793	-0.410638	-0.411091	-0.0368704	2	-0.000774586	1.51571e-05
2	0	0	0	1	22.5191	-0.424633	-0.4251	-0.0390566	2	-0.000779933	1.6603e-05
2	0	0	0	1	22.6591	-0.438628	-0.439082	-0.0410952	2	-0.000785587	1.80442e-05
2	0	0	0	1	22.7991	-0.452623	-0.453078	-0.0429859	2	-0.000791513	1.9476e-05
2	0	0	0	1	22.9391	-0.466618	-0.467083	-0.0445793	2	-0.000797679	2.08222e-05
2	0	0	1	1	23.0789	-0.480613	-0.481069	-0.0459704	2	-0.000804049	2.2115e-05
2	0	0	1	1	23.2189	-0.494608	-0.495069	-0.0472084	2	-0.000810612	2.33714e-05
2	0	0	1	1	23.3589	-0.508603	-0.509066	-0.0483112	2	-0.000817338	2.45936e-05
2	0	0	1	1	23.4989	-0.522598	-0.523063	-0.0492807	2	-0.000824212	2.57769e-05
2	0	0	0	1	23.6387	-0.536593	-0.537053	-0.0502243	2	-0.000831211	2.69731e-05
2	0	0	0	1	23.7787	-0.550588	-0.551046	-0.0511173	2	-0.000838344	2.8168e-05
2	0	0	0	1	23.9187	-0.564583	-0.565037	-0.0519491	2	-0.000845596	2.93532e-05
2	0	0	0	1	24.0587	-0.578578	-0.579052	-0.0527558	2	-0.000852963	3.05484e-05
2	0	0	1	1	24.1985	-0.592573	-0.593033	-0.0535529	2	-0.000860434	3.17586e-05
2	0	0	1	1	24.3385	-0.606568	-0.607036	-0.0544014	2	-0.00086803	3.30236e-05
2	0	0	1	1	24.4785	-0.620563	-0.621029	-0.0552368	2	-0.000875743	3.43036e-05
2	0	0	1	1	24.6185	-0.634558	-0.635029	-0.056146	2	-0.000883581	3.56543e-05
2	0	0	0	1	24.7583	-0.648553	-0.649021	-0.0571739	2	-0.000891541	3.71071e-05
2	0	0	0	1	24.8983	-0.662548	-0.663012	-0.0582746	2	-0.000899659	3.86368e-05
2	0	0	0	1	25.0383	-0.676543	-0.677	-0.0595368	2	-0.000907941	4.03064e-05
2	0	0	0	1	25.1783	-0.690538	-0.690992	-0.0609547	2	-0.000916408	4.21192e-05
2	0	0	1	1	25.3181	-0.704533	-0.704979	-0.0625826	2	-0.000925077	4.41195e-05
2	0	0	1	1	25.4581	-0.718528	-0.718992	-0.0644923	2	-0.000934007	4.63694e-05
2	0	0	1	1	25.5981	-0.732523	-0.732995	-0.0667376	2	-0.000943227	4.89184e-05
2	0	0	1	1	25.7381	-0.746518	-0.746989	-0.0694175	2	-0.00095279	5.18541e-05
2	0	0	0	1	25.8779	-0.760513	-0.76098	-0.0726236	2	-0.000962751	5.52651e-05
2	0	0	0	1	26.0179	-0.774508	-0.774977	-0.0765954	2	-0.000973227	5.93597e-05
2	0	0	0	1	26.1579	-0.788503	-0.788957	-0.0814273	2	-0.000984316	6.42426e-05
2	0	0	0	1	26.2979	-0.802498	-0.802964	-0.0873322	2	-0.000996156	7.01246e-05
2	0	0	1	1	26.4377	-0.816493	-0.81696	-0.0945785	2	-0.0010089	7.72669e-05
2	0	0	0	1	26.6087	-0.833586	-0.834003	-0.10503	2	-0.00102598	8.75951e-05
2	0	0	0	1	26.7487	-0.847582	-0.847998	-0.115796	2	-0.00104148	9.81947e-05
2	0	0	0	1	26.8887	-0.861576	-0.862	-0.128554	2	-0.00105863	0.000110814
2	0	0	1	1	27.0285	-0.875571	-0.875976	-0.143638	2	-0.0010777	0.000125823
2	0	0	1	1	27.1685	-0.889566	-0.889968	-0.161413	2	-0.00109909	0.000143652
2	1	0	1	0	27.2989	-0.897464	-0.897867	-0.168292	2	-0.00112123	0.000151104
2	1	0	1	0	27.4389	-0.883469	-0.883861	-0.142178	2	-0.00114278	0.000125665
2	1	0	1	0	27.5789	-0.869474	-0.869879	-0.12188	2	-0.00116115	0.000106021
2	1	0	0	0	27.7187	-0.855479	-0.855886	-0.104986	2	-0.00117691	8.98561e-05
2	1	0	0	0	27.8587	-0.841484	-0.841887	-0.0908765	2	-0.00119052	7.65078e-05
2	1	0	0	0	27.9987	-0.827489	-0.827888	-0.0790542	2	-0.00120232	6.5448e-05
2	1	0	0	0	28.1387	-0.813494	-0.813909	-0.0690192	2	-0.0012126	5.61753e-05
2	1	0	1	0	28.2785	-0.799499	-0.799883	-0.0606758	2	-0.00122158	4.85335e-05
2	1	0	1	0	28.4185	-0.785504	-0.785912	-0.0537032	2	-0.00122951	4.2206e-05
2	1	0	1	0	28.5585	-0.771509	-0.771923	-0.0478772	2	-0.00123654	3.69575e-05
2	1	0	1	0	28.7293	-0.754415	-0.754834	-0.0420135	2	-0.00124412	3.17132e-05
2	1	0	1	0	28.8693	-0.74042	-0.74083	-0.0382231	2	-0.00124969	2.83168e-05
[...]
2	1	0	0	0	29.2891	-0.698435	-0.698801	-0.0303669	2	-0.00126382	2.12205e-05
2	1	0	0	0	29.4291	-0.68444	-0.684843	-0.0286251	2	-0.00126791	1.96037e-05
2	1	0	0	0	29.5691	-0.670445	-0.670847	-0.0271428	2	-0.00127177	1.82087e-05
2	1	0	0	0	29.7091	-0.65645	-0.656853	-0.0258594	2	-0.00127544	1.69858e-05
2	1	0	1	0	29.8489	-0.642455	-0.642853	-0.0247356	2	-0.00127894	1.59013e-05
2	1	0	1	0	29.9889	-0.62846	-0.628874	-0.0236937	2	-0.0012823	1.49004e-05
2	1	0	1	0	30.1289	-0.614465	-0.614872	-0.0227768	2	-0.00128551	1.40048e-05
2	1	0	1	0	30.2689	-0.60047	-0.600871	-0.021775	2	-0.00128859	1.3084e-05
2	1	0	0	0	30.4087	-0.586475	-0.58687	-0.020834	2	-0.00129153	1.22269e-05
2	1	0	0	0	30.5487	-0.57248	-0.572866	-0.0198751	2	-0.00129435	1.13858e-05
2	1	0	0	0	30.6887	-0.558485	-0.558892	-0.018928	2	-0.00129703	1.05787e-05
2	1	0	0	0	30.8287	-0.54449	-0.54489	-0.0178992	2	-0.00129957	9.75308e-06
2	1	0	1	0	30.9685	-0.530495	-0.530882	-0.0168643	2	-0.00130196	8.95292e-06
2	1	0	1	0	31.1085	-0.5165	-0.51689	-0.015805	2	-0.00130421	8.16942e-06
2	1	0	1	0	31.2485	-0.502505	-0.502904	-0.0147228	2	-0.00130631	7.40413e-06
2	1	0	1	0	31.3885	-0.48851	-0.488921	-0.0135564	2	-0.00130825	6.62801e-06
2	1	0	0	0	31.5283	-0.474515	-0.474916	-0.0123554	2	-0.00131003	5.86776e-06
2	1	0	0	0	31.6683	-0.46052	-0.460941	-0.0110994	2	-0.00131163	5.11616e-06
2	1	0	0	0	31.8083	-0.446525	-0.446923	-0.00971668	2	-0.00131304	4.34261e-06
2	1	0	0	0	31.9483	-0.43253	-0.432933	-0.00830687	2	-0.00131427	3.59632e-06
2	1	0	1	0	32.0881	-0.418535	-0.41895	-0.0068517	2	-0.00131529	2.87052e-06
2	1	0	1	0	32.2281	-0.40454	-0.404926	-0.00537837	2	-0.00131611	2.17784e-06
2	1	0	0	0	32.3991	-0.387446	-0.387825	-0.0033338	2	-0.00131684	1.29293e-06
2	1	0	0	0	32.5391	-0.373451	-0.373824	-0.00187771	2	-0.0013172	7.01934e-07
2	1	0	1	0	32.6789	-0.359456	-0.359829	-0.000457639	2	-0.00131736	1.64672e-07
2	1	0	1	0	32.8189	-0.345461	-0.345841	0.000925255	2	-0.00131733	3.19991e-07
2	1	0	1	0	32.9589	-0.331466	-0.331839	0.00230084	2	-0.0013171	7.63508e-07
2	1	0	1	0	33.0989	-0.317471	-0.317828	0.00367935	2	-0.00131668	1.1694e-06
2	1	0	0	0	33.2387	-0.303476	-0.303823	0.00508994	2	-0.00131606	1.54644e-06
2	1	0	0	0	33.3787	-0.289481	-0.289804	0.00657261	2	-0.00131525	1.90477e-06
2	1	0	0	0	33.5187	-0.275486	-0.275821	0.00810588	2	-0.00131422	2.23578e-06
2	1	0	0	0	33.6587	-0.261491	-0.261816	0.00974346	2	-0.00131297	2.551e-06
2	1	0	0	0	33.8295	-0.244397	-0.244786	0.0115851	2	-0.00131113	2.83588e-06
2	1	0	0	0	33.9695	-0.230402	-0.230773	0.0133741	2	-0.00130934	3.08638e-06
2	1	0	0	0	34.1095	-0.216407	-0.216806	0.015205	2	-0.0013073	3.29655e-06
2	1	0	0	0	34.2495	-0.202412	-0.202793	0.0170596	2	-0.001305	3.45955e-06
2	1	0	1	0	34.3893	-0.188417	-0.188793	0.0188466	2	-0.00130245	3.5581e-06
2	1	0	1	0	34.5293	-0.174422	-0.174799	0.020401	2	-0.00129966	3.56607e-06
2	1	0	1	0	34.6693	-0.160427	-0.160785	0.02159	2	-0.00129668	3.47136e-06
2	1	0	1	0	34.8093	-0.146432	-0.146787	0.0221432	2	-0.00129358	3.25033e-06
2	1	0	0	0	34.9491	-0.132437	-0.132795	0.0219788	2	-0.00129045	2.91868e-06
2	1	0	0	0	35.0891	-0.118442	-0.118816	0.0211543	2	-0.00128738	2.51346e-06
2	1	0	0	0	35.2291	-0.104447	-0.104808	0.0198605	2	-0.00128447	2.08153e-06
2	1	0	0	0	35.3691	-0.0904521	-0.0908009	0.0183717	2	-0.00128176	1.66817e-06
2	1	0	1	0	35.5089	-0.0764571	-0.0768417	0.0169123	2	-0.00127925	1.29957e-06
2	1	0	1	0	35.6489	-0.0624621	-0.062832	0.0156647	2	-0.00127694	9.84245e-07
2	1	0	1	0	35.7889	-0.0484671	-0.0488504	0.0146273	2	-0.00127478	7.14552e-07
2	1	0	1	0	35.9289	-0.0344721	-0.0348336	0.013857	2	-0.00127275	4.82689e-07
2	1	0	0	0	35.9947	-0.0278744	-0.028234	0.0135249	2	-0.00127183	3.81861e-07

File: mg4_3_2.mpt
EC-Lab ASCII FILE
Nb header lines : 54

Cyclic Voltammetry

Run on channel : 1 (SN 0696)
User :
Electrode connection : standard
Ewe ctrl range : min = -2.50 V, max = 2.50 V
Ewe,I filtering : 50 kHz
Channel : Grounded
Acquisition started on : 01/18/2017 14:52:34
Saved on :
	File : mg4_3.mpr
	Directory : H:\EC-Lab\Data\Resazurin Bulk 18-1-17\
	Host : 144.32.136.43
Device : SP-300 (SN 0182)
Address : USB
EC-Lab for windows v10.44 (software)
Internet server v10.44 (firmware)
Command interpretor v10.44 (firmware)
Electrode material :
Initial state :
Electrolyte :
Comments :
Cable : standard
Reference electrode : SCE Saturated Calomel Electrode (0.241 V)
Electrode surface area : 0.001 cm²
Characteristic mass : 0.001 g
Equivalent Weight : 0.000 g/eq.
Density : 0.000 g/cm3
Ei (V)              0.000
vs.                 Eoc
dE/dt               100.000
dE/dt unit          mV/s
E1 (V)              0.000
vs.                 Ref
Step percent        50
N                   10
E range min (V)     -2.500
E range max (V)     2.500
I Range             Auto
I Range min         Unset
I Range max         Unset
I Range init        Unset
Bandwidth           8
E2 (V)              -0.900
vs.                 Ref
nc cycles           2
Reverse Scan        1
Ef (V)              0.000
vs.                 Eoc

mode	ox/red	error	control changes	counter inc.	time/s	control/V	Ewe/V	<I>/mA	cycle number	(Q-Qo)/C	P/W
2	1	0	0	1	17.9966	-0.0246256	-0.0254412	0.0109854	2	-0.000903029	2.79483e-07
2	1	0	1	1	18.1321	-0.0110804	-0.0118569	0.0107331	2	-0.000901527	1.27261e-07
2	0	0	0	1	18.2587	-0.00158383	-0.00244095	0.00773729	2	-0.000900193	1.88863e-08
2	0	0	0	1	18.3987	-0.0155788	-0.0164322	0.00440549	2	-0.000899421	7.23921e-08
2	0	0	0	1	18.5695	-0.0326727	-0.0335063	0.00232201	2	-0.000898889	7.78019e-08
2	0	0	0	1	18.7095	-0.0466677	-0.0475033	0.00126647	2	-0.000898643	6.01615e-08
2	0	0	0	1	18.8495	-0.0606627	-0.0614993	0.000482011	2	-0.000898522	2.96433e-08
2	0	0	0	1	18.9895	-0.0746577	-0.075501	-0.000182809	2	-0.000898503	1.38023e-08
2	0	0	1	1	19.1293	-0.0886527	-0.0895051	-0.000749619	2	-0.000898569	6.70947e-08
2	0	0	1	1	19.2693	-0.102648	-0.103505	-0.00124938	2	-0.000898709	1.29318e-07
2	0	0	1	1	19.4093	-0.116643	-0.117525	-0.001728	2	-0.000898919	2.03082e-07
2	0	0	1	1	19.5493	-0.130638	-0.131491	-0.00222314	2	-0.000899195	2.92323e-07
2	0	0	0	1	19.6891	-0.144633	-0.145496	-0.0027193	2	-0.00089954	3.95648e-07
2	0	0	0	1	19.8291	-0.158628	-0.159483	-0.00325391	2	-0.000899959	5.18943e-07
2	0	0	0	1	19.9691	-0.172623	-0.173484	-0.00391649	2	-0.000900462	6.79448e-07
2	0	0	0	1	20.1091	-0.186618	-0.187469	-0.00469008	2	-0.000901063	8.79245e-07
2	0	0	1	1	20.2489	-0.200613	-0.201467	-0.00564253	2	-0.000901783	1.13678e-06
2	0	0	1	1	20.3889	-0.214608	-0.215465	-0.00682102	2	-0.000902655	1.46969e-06
2	0	0	1	1	20.5289	-0.228603	-0.229488	-0.00831687	2	-0.000903713	1.90862e-06
2	0	0	1	1	20.6689	-0.242598	-0.243494	-0.010085	2	-0.000904999	2.45565e-06
2	0	0	1	1	20.8397	-0.259692	-0.26055	-0.0122809	2	-0.000906924	3.19978e-06
2	0	0	1	1	20.9797	-0.273687	-0.274566	-0.0144472	2	-0.000908829	3.96671e-06
2	0	0	1	1	21.1197	-0.287682	-0.288542	-0.0166119	2	-0.000911037	4.79323e-06
2	0	0	1	1	21.2597	-0.301677	-0.302519	-0.0188174	2	-0.000913552	5.69261e-06
2	0	0	0	1	21.3995	-0.315672	-0.316542	-0.0210369	2	-0.000916372	6.65907e-06
2	0	0	0	1	21.5395	-0.329667	-0.330535	-0.0232066	2	-0.000919504	7.67059e-06
2	0	0	0	1	21.6795	-0.343662	-0.344528	-0.0255627	2	-0.00092295	8.80706e-06
2	0	0	0	1	21.8195	-0.357657	-0.358552	-0.0278778	2	-0.000926721	9.99567e-06
2	0	0	1	1	21.9593	-0.371652	-0.372512	-0.0303016	2	-0.000930824	1.12877e-05
2	0	0	1	1	22.0993	-0.385647	-0.38652	-0.0328653	2	-0.00093528	1.27031e-05
2	0	0	1	1	22.2393	-0.399642	-0.40051	-0.0354335	2	-0.000940094	1.41914e-05
2	0	0	1	1	22.3793	-0.413637	-0.41451	-0.0379831	2	-0.000945269	1.57444e-05
2	0	0	0	1	22.5191	-0.427632	-0.428509	-0.0404895	2	-0.000950793	1.73501e-05
2	0	0	0	1	22.6591	-0.441627	-0.442496	-0.0428979	2	-0.000956668	1.89822e-05
2	0	0	0	1	22.7991	-0.455622	-0.456482	-0.045154	2	-0.000962869	2.0612e-05
2	0	0	0	1	22.9391	-0.469617	-0.470497	-0.0473384	2	-0.000969378	2.22726e-05
2	0	0	1	1	23.0789	-0.483612	-0.484488	-0.0493103	2	-0.000976167	2.38902e-05
2	0	0	1	1	23.2189	-0.497607	-0.498485	-0.0511724	2	-0.000983236	2.55087e-05
2	0	0	1	1	23.3589	-0.511602	-0.512494	-0.0530611	2	-0.000990567	2.71935e-05
2	0	0	1	1	23.4989	-0.525597	-0.52649	-0.0548201	2	-0.000998153	2.88622e-05
2	0	0	0	1	23.6387	-0.539592	-0.540477	-0.0566426	2	-0.00100598	3.0614e-05
2	0	0	0	1	23.7787	-0.553587	-0.554467	-0.0584766	2	-0.00101407	3.24233e-05
2	0	0	0	1	23.9187	-0.567582	-0.568466	-0.0603176	2	-0.00102242	3.42885e-05
2	0	0	0	1	24.0587	-0.581577	-0.58246	-0.0623325	2	-0.00103104	3.63062e-05
2	0	0	1	1	24.1985	-0.595572	-0.596469	-0.0643459	2	-0.00103993	3.83803e-05
2	0	0	1	1	24.3385	-0.609567	-0.61045	-0.0664686	2	-0.00104911	4.05758e-05
2	0	0	1	1	24.4785	-0.623562	-0.624468	-0.0686252	2	-0.0010586	4.28542e-05
2	0	0	1	1	24.6185	-0.637557	-0.638437	-0.0709044	2	-0.0010684	4.5268e-05
2	0	0	0	1	24.7583	-0.651552	-0.652449	-0.0733463	2	-0.00107852	4.78548e-05
2	0	0	0	1	24.8983	-0.665547	-0.666438	-0.0759438	2	-0.001089	5.06118e-05
2	0	0	0	1	25.0383	-0.679542	-0.680445	-0.0787785	2	-0.00109986	5.36044e-05
2	0	0	0	1	25.1783	-0.693537	-0.694404	-0.081675	2	-0.00111112	5.67155e-05
2	0	0	1	1	25.3181	-0.707532	-0.708421	-0.0848788	2	-0.0011228	6.01299e-05
2	0	0	1	1	25.4581	-0.721527	-0.722442	-0.0883063	2	-0.00113495	6.37962e-05
2	0	0	1	1	25.5981	-0.735522	-0.736429	-0.091987	2	-0.0011476	6.77419e-05
2	0	0	1	1	25.7381	-0.749517	-0.750409	-0.0960476	2	-0.00116079	7.2075e-05
2	0	0	0	1	25.8779	-0.763512	-0.764412	-0.100503	2	-0.00117457	7.68259e-05
2	0	0	1	1	26.0489	-0.780605	-0.781466	-0.106206	2	-0.0011923	8.29964e-05
2	0	0	1	1	26.1889	-0.7946	-0.79544	-0.112279	2	-0.00120769	8.93112e-05
2	0	0	1	1	26.3288	-0.8086	-0.80946	-0.119395	2	-0.00122399	9.66458e-05
2	0	0	0	1	26.4687	-0.82259	-0.823434	-0.127524	2	-0.00124135	0.000105007
2	0	0	0	1	26.6087	-0.836585	-0.837445	-0.137278	2	-0.00125998	0.000114963
2	0	0	0	1	26.7487	-0.85058	-0.851424	-0.148696	2	-0.00128009	0.000126603
2	0	0	0	1	26.8886	-0.864578	-0.865428	-0.162144	2	-0.00130191	0.000140324
2	0	0	1	1	27.0285	-0.87857	-0.879411	-0.178142	2	-0.00132579	0.00015666
2	0	0	1	1	27.1685	-0.892565	-0.893422	-0.197137	2	-0.00135213	0.000176126
2	1	0	1	0	27.2989	-0.894465	-0.895311	-0.192647	2	-0.0013784	0.000172479
2	1	0	1	0	27.4389	-0.88047	-0.881302	-0.166315	2	-0.00140333	0.000146573
2	1	0	1	0	27.5789	-0.866475	-0.867333	-0.145435	2	-0.00142499	0.00012614
2	1	0	0	0	27.7187	-0.85248	-0.853303	-0.128141	2	-0.00144396	0.000109343
2	1	0	0	0	27.8587	-0.838485	-0.839335	-0.113656	2	-0.00146075	9.53953e-05
2	1	0	0	0	27.9987	-0.82449	-0.825331	-0.101492	2	-0.00147568	8.37647e-05
2	1	0	0	0	28.1387	-0.810495	-0.811325	-0.0912963	2	-0.00148905	7.40711e-05
2	1	0	1	0	28.2785	-0.7965	-0.797346	-0.0825892	2	-0.00150107	6.58522e-05
2	1	0	1	0	28.4185	-0.782505	-0.783339	-0.0752389	2	-0.001512	5.89376e-05
2	1	0	1	0	28.5585	-0.76851	-0.769351	-0.0689209	2	-0.00152197	5.30244e-05
2	1	0	1	0	28.6985	-0.754515	-0.75537	-0.0634784	2	-0.00153113	4.79497e-05
2	1	0	0	0	28.8383	-0.74052	-0.741383	-0.0588656	2	-0.00153958	4.3642e-05
2	1	0	0	0	28.9783	-0.726525	-0.727368	-0.054831	2	-0.00154743	3.98823e-05
[...]
2	1	0	0	0	29.2583	-0.698535	-0.699387	-0.0480827	2	-0.0015616	3.36284e-05
2	1	0	0	0	29.4291	-0.681441	-0.682259	-0.0441954	2	-0.00156937	3.01527e-05
2	1	0	0	0	29.5691	-0.667446	-0.668268	-0.0414844	2	-0.00157533	2.77227e-05
2	1	0	0	0	29.7091	-0.653451	-0.654259	-0.0389592	2	-0.00158093	2.54894e-05
2	1	0	1	0	29.8489	-0.639456	-0.640267	-0.036546	2	-0.00158617	2.33992e-05
2	1	0	1	0	29.9889	-0.625461	-0.626282	-0.0342283	2	-0.00159109	2.14366e-05
2	1	0	1	0	30.1289	-0.611466	-0.612272	-0.0321106	2	-0.0015957	1.96604e-05
2	1	0	1	0	30.2689	-0.597471	-0.598275	-0.0300601	2	-0.00160002	1.79842e-05
2	1	0	0	0	30.4087	-0.583476	-0.584302	-0.028179	2	-0.00160406	1.6465e-05
2	1	0	0	0	30.5487	-0.569481	-0.57029	-0.0264376	2	-0.00160784	1.50771e-05
2	1	0	0	0	30.6887	-0.555486	-0.556279	-0.0246889	2	-0.00161138	1.37339e-05
2	1	0	0	0	30.8287	-0.541491	-0.542287	-0.0230473	2	-0.00161469	1.24983e-05
2	1	0	1	0	30.9685	-0.527496	-0.52831	-0.0214226	2	-0.00161776	1.13178e-05
2	1	0	1	0	31.1085	-0.513501	-0.514326	-0.0199045	2	-0.00162062	1.02374e-05
2	1	0	1	0	31.2485	-0.499506	-0.500307	-0.018286	2	-0.00162325	9.14863e-06
2	1	0	1	0	31.3885	-0.485511	-0.48632	-0.0167178	2	-0.00162567	8.13021e-06
2	1	0	0	0	31.5283	-0.471516	-0.472315	-0.015133	2	-0.00162787	7.14755e-06
2	1	0	0	0	31.6683	-0.457521	-0.458341	-0.0135402	2	-0.00162984	6.20604e-06
2	1	0	0	0	31.8083	-0.443526	-0.444321	-0.0118869	2	-0.00163159	5.28158e-06
2	1	0	0	0	31.9483	-0.429531	-0.43035	-0.010224	2	-0.0016331	4.3999e-06
2	1	0	1	0	32.0881	-0.415536	-0.416345	-0.0085621	2	-0.00163438	3.56479e-06
2	1	0	1	0	32.2281	-0.401541	-0.402357	-0.00695575	2	-0.00163543	2.79869e-06
2	1	0	1	0	32.3681	-0.387546	-0.388346	-0.00530143	2	-0.00163625	2.05879e-06
2	1	0	0	0	32.5391	-0.370452	-0.371258	-0.00317258	2	-0.00163695	1.17785e-06
2	1	0	1	0	32.6789	-0.356457	-0.357256	-0.00166372	2	-0.00163729	5.94375e-07
2	1	0	1	0	32.8189	-0.342462	-0.343258	-0.000201172	2	-0.00163741	6.90537e-08
2	1	0	1	0	32.9589	-0.328467	-0.329268	0.00122854	2	-0.00163734	4.04518e-07
2	1	0	1	0	33.0989	-0.314472	-0.315263	0.00266627	2	-0.00163707	8.40576e-07
2	1	0	0	0	33.2387	-0.300477	-0.301251	0.00409791	2	-0.00163659	1.2345e-06
2	1	0	0	0	33.3787	-0.286482	-0.287265	0.00558158	2	-0.00163591	1.60339e-06
2	1	0	0	0	33.5187	-0.272487	-0.273268	0.00713408	2	-0.00163502	1.94952e-06
2	1	0	0	0	33.6587	-0.258492	-0.259247	0.00873083	2	-0.00163391	2.26344e-06
2	1	0	0	0	33.8295	-0.241398	-0.24218	0.0105357	2	-0.00163224	2.55153e-06
2	1	0	0	0	33.9695	-0.227403	-0.228196	0.0122087	2	-0.00163062	2.78597e-06
2	1	0	0	0	34.1095	-0.213408	-0.214186	0.013888	2	-0.00162876	2.97462e-06
2	1	0	0	0	34.2495	-0.199413	-0.200191	0.0155409	2	-0.00162666	3.11114e-06
2	1	0	1	0	34.3893	-0.185418	-0.186183	0.0170849	2	-0.00162434	3.18093e-06
2	1	0	1	0	34.5293	-0.171423	-0.172183	0.0183807	2	-0.00162182	3.16484e-06
2	1	0	1	0	34.6693	-0.157428	-0.158175	0.0192314	2	-0.00161915	3.04193e-06
2	1	0	1	0	34.8093	-0.143433	-0.144223	0.0195247	2	-0.00161639	2.81591e-06
2	1	0	0	0	34.9491	-0.129438	-0.130214	0.0192349	2	-0.00161364	2.50465e-06
2	1	0	0	0	35.0891	-0.115443	-0.116246	0.0183654	2	-0.00161098	2.13491e-06
2	1	0	0	0	35.2291	-0.101448	-0.102223	0.0171964	2	-0.00160845	1.75787e-06
2	1	0	0	0	35.3691	-0.0874531	-0.088217	0.0159609	2	-0.00160609	1.40803e-06
2	1	0	1	0	35.5089	-0.0734581	-0.0742224	0.014813	2	-0.00160391	1.09945e-06
2	1	0	1	0	35.6489	-0.0594631	-0.0602266	0.013894	2	-0.00160187	8.36789e-07
2	1	0	1	0	35.7889	-0.0454681	-0.0462372	0.0131603	2	-0.00159995	6.08495e-07
2	1	0	1	0	35.9289	-0.0314731	-0.0322253	0.0126008	2	-0.00159811	4.06065e-07
2	1	0	0	0	35.9952	-0.0248255	-0.0256016	0.012442	2	-0.00159727	3.18536e-07