Folder: CV/TAP_Report/Data/Res_SHU

File: 100 uM RS 10mM SHU_01_CV_C01_2.mpt
EC-Lab ASCII FILE
Nb header lines : 53

Cyclic Voltammetry

Run on channel : 1 (SN 0696)
User :
Electrode connection : standard
Ewe ctrl range : min = -10.00 V, max = 10.00 V
Ewe,I filtering : 50 kHz
Channel : Grounded
Acquisition started on : 05/17/2017 13:04:41
Saved on :
	File : 100 uM RS 10mM SHU_01_CV_C01.mpr
	Directory : \\userfs\st659\w2k\EC-Lab\Data\ITO Characterisation 17-5-17\
	Host : 144.32.136.43
Device : SP-300 (SN 0182)
Address : USB
EC-Lab for windows v10.44 (software)
Internet server v10.44 (firmware)
Command interpretor v10.44 (firmware)
Electrode material :
Initial state :
Electrolyte :
Comments :
Cable : standard
Electrode surface area : 0.001 cm²
Characteristic mass : 0.001 g
Equivalent Weight : 0.000 g/eq.
Density : 0.000 g/cm3
Ei (V)              0.000
vs.                 Eoc
dE/dt               20.000
dE/dt unit          mV/s
E1 (V)              0.100
vs.                 Ref
Step percent        50
N                   10
E range min (V)     -10.000
E range max (V)     10.000
I Range             Auto
I Range min         Unset
I Range max         Unset
I Range init        Unset
Bandwidth           8
E2 (V)              -0.600
vs.                 Ref
nc cycles           2
Reverse Scan        1
Ef (V)              0.000
vs.                 Eoc

mode	ox/red	error	control changes	counter inc.	time/s	control/V	Ewe/V	<I>/mA	cycle number	(Q-Qo)/C	P/W
2	1	0	0	1	53.9136	-0.599827	-0.600012	-0.0101556	2	-0.000202167	6.09346e-06
2	1	0	1	1	54.5051	-0.587999	-0.588215	-0.00907034	2	-0.000207785	5.33531e-06
2	1	0	1	1	55.1716	-0.574669	-0.574909	-0.00829302	2	-0.000213532	4.76773e-06
2	1	0	1	1	55.838	-0.561341	-0.561553	-0.00767774	2	-0.000218821	4.31146e-06
2	1	0	1	1	56.5044	-0.548013	-0.548219	-0.00716548	2	-0.000223737	3.92825e-06
2	1	0	1	1	57.1708	-0.534685	-0.534894	-0.00671851	2	-0.000228335	3.59369e-06
2	1	0	1	1	57.8372	-0.521357	-0.521573	-0.00631828	2	-0.000232652	3.29544e-06
2	1	0	1	1	58.5036	-0.508029	-0.508246	-0.00594998	2	-0.000236713	3.02406e-06
2	1	0	1	1	59.17	-0.494701	-0.494884	-0.00560995	2	-0.000240539	2.77628e-06
2	1	0	1	1	59.8364	-0.481373	-0.481584	-0.00529117	2	-0.000244145	2.54814e-06
2	1	0	1	1	60.5028	-0.468045	-0.468263	-0.00498398	2	-0.000247543	2.33381e-06
2	1	0	1	1	61.2192	-0.453717	-0.453901	-0.00469292	2	-0.000250983	2.13012e-06
2	1	0	1	1	61.8856	-0.440389	-0.440598	-0.0044139	2	-0.000253993	1.94476e-06
2	1	0	1	1	62.552	-0.427061	-0.427271	-0.00414068	2	-0.000256818	1.76919e-06
2	1	0	1	1	63.2184	-0.413733	-0.413951	-0.00387753	2	-0.000259465	1.60511e-06
2	1	0	0	1	63.8849	-0.400403	-0.400632	-0.00361795	2	-0.000261939	1.44947e-06
2	1	0	0	1	64.5513	-0.387075	-0.387299	-0.00336745	2	-0.000264242	1.30421e-06
2	1	0	0	1	65.2177	-0.373747	-0.373965	-0.0031289	2	-0.000266383	1.1701e-06
2	1	0	0	1	65.8841	-0.360419	-0.360638	-0.00290357	2	-0.000268369	1.04714e-06
2	1	0	0	1	66.5506	-0.347089	-0.347308	-0.00268187	2	-0.000270206	9.31433e-07
2	1	0	0	1	67.217	-0.333761	-0.333956	-0.00246636	2	-0.000271898	8.23656e-07
2	1	0	0	1	67.8834	-0.320433	-0.320612	-0.00226349	2	-0.00027345	7.25704e-07
2	1	0	0	1	68.5498	-0.307105	-0.307297	-0.00207308	2	-0.000274871	6.37053e-07
2	1	0	0	1	69.2162	-0.293777	-0.29395	-0.00189297	2	-0.000276169	5.5644e-07
2	1	0	0	1	69.8826	-0.280449	-0.280622	-0.00172477	2	-0.000277351	4.8401e-07
2	1	0	0	1	70.549	-0.267121	-0.267319	-0.00156746	2	-0.000278425	4.19013e-07
2	1	0	0	1	71.2154	-0.253793	-0.253985	-0.0014174	2	-0.000279396	3.59999e-07
2	1	0	0	1	71.8818	-0.240465	-0.24065	-0.00127437	2	-0.00028027	3.06678e-07
2	1	0	0	1	72.5482	-0.227137	-0.227354	-0.00113395	2	-0.000281049	2.57807e-07
2	1	0	0	1	73.2146	-0.213809	-0.213993	-0.0010009	2	-0.000281738	2.14186e-07
2	1	0	0	1	73.881	-0.200481	-0.200653	-0.000868208	2	-0.000282339	1.74209e-07
2	1	0	1	1	74.5475	-0.187151	-0.187312	-0.00073374	2	-0.000282851	1.37438e-07
2	1	0	1	1	75.2139	-0.173823	-0.174001	-0.000599486	2	-0.000283273	1.04311e-07
2	1	0	1	1	75.9303	-0.159495	-0.159681	-0.000464102	2	-0.00028363	7.41083e-08
2	1	0	1	1	76.5967	-0.146167	-0.146367	-0.00034846	2	-0.000283878	5.10031e-08
2	1	0	1	1	77.2631	-0.132839	-0.133015	-0.000249568	2	-0.000284053	3.31962e-08
2	1	0	1	1	77.9295	-0.119511	-0.119659	-0.00017166	2	-0.00028417	2.05407e-08
2	1	0	1	1	78.596	-0.106181	-0.106337	-0.000115944	2	-0.000284243	1.23292e-08
2	1	0	1	1	79.2624	-0.0928528	-0.0929933	-8.68438e-05	2	-0.000284288	8.07589e-09
2	1	0	1	1	79.9288	-0.0795246	-0.0796878	-8.02717e-05	2	-0.000284321	6.39668e-09
2	1	0	1	1	80.5952	-0.0661968	-0.0663679	-9.32498e-05	2	-0.000284357	6.18879e-09
2	1	0	1	1	81.2616	-0.052869	-0.0530378	-0.000118672	2	-0.000284406	6.29409e-09
2	1	0	1	1	81.928	-0.0395407	-0.0396864	-0.000147141	2	-0.000284474	5.83948e-09
2	1	0	1	1	82.5944	-0.0262129	-0.0263476	-0.00017306	2	-0.00028456	4.55971e-09
2	1	0	1	1	83.2608	-0.0128846	-0.013061	-0.000193608	2	-0.000284663	2.52872e-09
2	1	0	1	1	83.9272	0.000455576	0.000273138	-0.000208532	2	-0.000284777	5.69579e-11
2	1	0	1	1	84.5936	0.013771	0.0136403	-0.000216021	2	-0.000284899	2.94659e-09
2	1	0	1	1	85.26	0.0270992	0.0269588	-0.000217574	2	-0.000285023	5.86553e-09
2	1	0	0	1	85.9265	0.0404292	0.0402886	-0.000214953	2	-0.000285148	8.66016e-09
2	1	0	0	1	86.5929	0.0537575	0.0536508	-0.000208813	2	-0.00028527	1.1203e-08
2	1	0	0	1	87.2593	0.0670853	0.0669562	-0.000200151	2	-0.000285386	1.34013e-08
2	1	0	0	1	87.9257	0.0804131	0.0802828	-0.000188724	2	-0.000285497	1.51513e-08
2	1	0	0	1	88.5921	0.0937413	0.0935863	-0.000175386	2	-0.000285599	1.64137e-08
2	0	0	1	1	88.9924	0.0980721	0.0979405	-0.000207317	2	-0.000285665	2.03047e-08
2	0	0	1	1	89.6588	0.0847443	0.0846084	-0.000339896	2	-0.000285871	2.8758e-08
2	0	0	1	1	90.3252	0.0714165	0.0712876	-0.000430293	2	-0.000286148	3.06745e-08
2	0	0	1	1	90.9916	0.0580883	0.0579851	-0.000501958	2	-0.000286479	2.91061e-08
2	0	0	1	1	91.658	0.0447605	0.0446195	-0.000562253	2	-0.000286854	2.50874e-08
2	0	0	1	1	92.3244	0.0314327	0.0312796	-0.000613468	2	-0.000287266	1.9189e-08
2	0	0	1	1	92.9908	0.0181044	0.0179827	-0.000658958	2	-0.00028771	1.18498e-08
2	0	0	1	1	93.6572	0.00477662	0.00462466	-0.000698625	2	-0.000288183	3.2309e-09
2	0	0	1	1	94.3236	-0.00855163	-0.0087436	-0.000736133	2	-0.000288681	6.43645e-09
2	0	0	1	1	94.99	-0.0218794	-0.022056	-0.000770099	2	-0.000289204	1.69853e-08
2	0	0	0	1	95.6565	-0.0352095	-0.0354047	-0.000802053	2	-0.000289748	2.83964e-08
2	0	0	0	1	96.3229	-0.0485377	-0.0487394	-0.000833409	2	-0.000290314	4.06198e-08
2	0	0	0	1	96.9893	-0.0618655	-0.0620583	-0.000863271	2	-0.0002909	5.35731e-08
2	0	0	0	1	97.689	-0.0758593	-0.0760367	-0.000894826	2	-0.000291541	6.80396e-08
2	0	0	0	1	98.3554	-0.0891876	-0.0893544	-0.000926322	2	-0.000292167	8.2771e-08
2	0	0	0	1	99.0218	-0.102515	-0.10267	-0.000960691	2	-0.000292816	9.86343e-08
2	0	0	0	1	99.6882	-0.115844	-0.11598	-0.00100024	2	-0.00029349	1.16008e-07
2	0	0	1	1	100.355	-0.129174	-0.129349	-0.00104873	2	-0.000294193	1.35653e-07
2	0	0	1	1	101.021	-0.142501	-0.142676	-0.00111195	2	-0.000294933	1.58648e-07
2	0	0	1	1	101.687	-0.15583	-0.155997	-0.00119639	2	-0.000295722	1.86633e-07
2	0	0	1	1	102.354	-0.169158	-0.169364	-0.00131105	2	-0.000296578	2.22044e-07
2	0	0	1	1	103.02	-0.182488	-0.182679	-0.00145548	2	-0.00029752	2.65885e-07
2	0	0	1	1	103.687	-0.195816	-0.195997	-0.00163031	2	-0.000298569	3.19536e-07
2	0	0	1	1	104.353	-0.209144	-0.209325	-0.00183064	2	-0.000299744	3.83199e-07
2	0	0	1	1	105.02	-0.222472	-0.222665	-0.00205107	2	-0.000301059	4.567e-07
2	0	0	1	1	105.686	-0.2358	-0.235984	-0.00228472	2	-0.000302526	5.39158e-07
2	0	0	1	1	106.352	-0.249127	-0.249306	-0.00252577	2	-0.000304152	6.2969e-07
2	0	0	1	1	107.019	-0.262456	-0.262619	-0.0027691	2	-0.00030594	7.27217e-07
2	0	0	1	1	107.685	-0.275784	-0.275948	-0.00301039	2	-0.000307889	8.30712e-07
2	0	0	1	1	108.352	-0.289111	-0.28927	-0.00325001	2	-0.000309998	9.4013e-07
2	0	0	1	1	109.018	-0.30244	-0.302633	-0.0034889	2	-0.000312267	1.05586e-06
2	0	0	1	1	109.684	-0.315767	-0.315949	-0.00372238	2	-0.000314693	1.17608e-06
2	0	0	1	1	110.351	-0.329096	-0.329265	-0.0039606	2	-0.000317277	1.30409e-06
2	0	0	0	1	111.017	-0.342426	-0.342649	-0.00419486	2	-0.000320018	1.43737e-06
2	0	0	0	1	111.684	-0.355753	-0.35597	-0.00442838	2	-0.000322915	1.57637e-06
2	0	0	0	1	112.35	-0.369082	-0.369271	-0.00465837	2	-0.000325967	1.7202e-06
2	0	0	0	1	113.016	-0.38241	-0.382621	-0.00488672	2	-0.000329171	1.86976e-06
2	0	0	0	1	113.683	-0.39574	-0.395967	-0.00510809	2	-0.000332527	2.02263e-06
2	0	0	0	1	114.349	-0.409068	-0.409276	-0.00532054	2	-0.000336025	2.17757e-06
2	0	0	0	1	115.016	-0.422396	-0.422621	-0.00552256	2	-0.000339663	2.33395e-06
2	0	0	0	1	115.682	-0.435723	-0.435929	-0.00571201	2	-0.000343431	2.49003e-06
2	0	0	0	1	116.349	-0.449052	-0.449239	-0.00588828	2	-0.000347321	2.64524e-06
2	0	0	0	1	117.015	-0.462379	-0.462587	-0.0060512	2	-0.000351325	2.7992e-06
2	0	0	0	1	117.681	-0.475708	-0.475923	-0.00620535	2	-0.000355434	2.95327e-06
2	0	0	0	1	118.348	-0.489036	-0.489256	-0.00634681	2	-0.000359642	3.10521e-06
2	0	0	0	1	119.014	-0.502363	-0.50259	-0.00648773	2	-0.000363943	3.26067e-06
2	0	0	0	1	119.681	-0.515692	-0.515891	-0.00662146	2	-0.000368335	3.41595e-06
2	0	0	0	1	120.347	-0.529019	-0.529232	-0.00676046	2	-0.000372819	3.57785e-06
2	0	0	1	1	121.013	-0.542349	-0.542545	-0.00690614	2	-0.000377398	3.74689e-06
2	0	0	1	1	121.68	-0.555678	-0.555909	-0.00706195	2	-0.000382077	3.9258e-06
2	0	0	1	1	122.346	-0.569005	-0.569233	-0.0072287	2	-0.000386865	4.11481e-06
2	0	0	1	1	123.013	-0.582334	-0.582547	-0.00740907	2	-0.000391768	4.31613e-06
2	0	0	1	1	123.679	-0.595662	-0.595898	-0.0075929	2	-0.000396793	4.52459e-06
2	0	0	1	1	123.888	-0.60016	-0.600348	-0.00781096	2	-0.000398392	4.6893e-06

File: 100 uM RS 10mM SHU_02_CV_C01_2.mpt
EC-Lab ASCII FILE
Nb header lines : 53

Cyclic Voltammetry

Run on channel : 1 (SN 0696)
User :
Electrode connection : standard
Ewe ctrl range : min = -10.00 V, max = 10.00 V
Ewe,I filtering : 50 kHz
Channel : Grounded
Acquisition started on : 05/17/2017 13:04:41
Saved on :
	File : 100 uM RS 10mM SHU_02_CV_C01.mpr
	Directory : \\userfs\st659\w2k\EC-Lab\Data\ITO Characterisation 17-5-17\
	Host : 144.32.136.43
Device : SP-300 (SN 0182)
Address : USB
EC-Lab for windows v10.44 (software)
Internet server v10.44 (firmware)
Command interpretor v10.44 (firmware)
Electrode material :
Initial state :
Electrolyte :
Comments :
Cable : standard
Electrode surface area : 0.001 cm²
Characteristic mass : 0.001 g
Equivalent Weight : 0.000 g/eq.
Density : 0.000 g/cm3
Ei (V)              0.000
vs.                 Eoc
dE/dt               50.000
dE/dt unit          mV/s
E1 (V)              0.100
vs.                 Ref
Step percent        50
N                   10
E range min (V)     -10.000
E range max (V)     10.000
I Range             Auto
I Range min         Unset
I Range max         Unset
I Range init        Unset
Bandwidth           8
E2 (V)              -0.600
vs.                 Ref
nc cycles           2
Reverse Scan        1
Ef (V)              0.000
vs.                 Eoc

mode	ox/red	error	control changes	counter inc.	time/s	control/V	Ewe/V	<I>/mA	cycle number	(Q-Qo)/C	P/W
2	1	0	0	1	269.504	-0.60016	-0.600329	-0.00788971	2	-5.2167e-05	4.73642e-06
2	1	0	1	1	269.74	-0.588335	-0.588553	-0.00675795	2	-5.38464e-05	3.97741e-06
2	1	0	0	1	270.007	-0.575003	-0.575217	-0.00609224	2	-5.55403e-05	3.50436e-06
2	1	0	1	1	270.273	-0.561675	-0.561879	-0.00556555	2	-5.70777e-05	3.12717e-06
2	1	0	0	1	270.54	-0.548343	-0.54854	-0.00512842	2	-5.84875e-05	2.81314e-06
2	1	0	1	1	270.806	-0.53502	-0.535211	-0.00475248	2	-5.97887e-05	2.54358e-06
2	1	0	1	1	271.073	-0.521694	-0.521887	-0.00442079	2	-6.0996e-05	2.30715e-06
2	1	0	0	1	271.34	-0.508364	-0.508569	-0.00412081	2	-6.21197e-05	2.09572e-06
2	1	0	1	1	271.606	-0.495034	-0.495228	-0.00384867	2	-6.31673e-05	1.90597e-06
2	1	0	0	1	271.873	-0.481703	-0.481901	-0.0035961	2	-6.41452e-05	1.73297e-06
2	1	0	1	1	272.139	-0.468374	-0.468571	-0.00335838	2	-6.50581e-05	1.57364e-06
2	1	0	0	1	272.406	-0.455049	-0.4552	-0.00313422	2	-6.59092e-05	1.4267e-06
2	1	0	0	1	272.672	-0.441724	-0.441923	-0.00292313	2	-6.67025e-05	1.2918e-06
2	1	0	1	1	272.939	-0.428394	-0.42858	-0.00271995	2	-6.74408e-05	1.16572e-06
2	1	0	0	1	273.206	-0.415064	-0.41526	-0.00252768	2	-6.81264e-05	1.04965e-06
2	1	0	1	1	273.472	-0.401733	-0.401951	-0.0023402	2	-6.87614e-05	9.40645e-07
2	1	0	0	1	273.739	-0.388404	-0.388609	-0.00216314	2	-6.93478e-05	8.40617e-07
2	1	0	0	1	274.005	-0.375083	-0.375271	-0.00199404	2	-6.98876e-05	7.48306e-07
2	1	0	1	1	274.272	-0.361755	-0.36196	-0.00183401	2	-7.03839e-05	6.63837e-07
2	1	0	0	1	274.538	-0.348423	-0.348635	-0.0016788	2	-7.08383e-05	5.85288e-07
2	1	0	1	1	274.805	-0.335095	-0.335279	-0.00153411	2	-7.12531e-05	5.14353e-07
2	1	0	0	1	275.072	-0.321763	-0.321934	-0.00139734	2	-7.16301e-05	4.49851e-07
2	1	0	1	1	275.338	-0.308435	-0.308616	-0.00126847	2	-7.19718e-05	3.9147e-07
2	1	0	1	1	275.605	-0.295113	-0.295275	-0.00114562	2	-7.22797e-05	3.38273e-07
2	1	0	0	1	275.871	-0.281785	-0.28191	-0.00102955	2	-7.2556e-05	2.90241e-07
2	1	0	1	1	276.138	-0.268453	-0.268614	-0.000919432	2	-7.28024e-05	2.46973e-07
2	1	0	0	1	276.404	-0.255124	-0.255299	-0.000815665	2	-7.30202e-05	2.08238e-07
2	1	0	1	1	276.671	-0.241794	-0.241966	-0.000713578	2	-7.32105e-05	1.72661e-07
2	1	0	0	1	276.937	-0.228469	-0.22867	-0.000616573	2	-7.33743e-05	1.40992e-07
2	1	0	0	1	277.204	-0.215144	-0.215337	-0.000517885	2	-7.35119e-05	1.1152e-07
2	1	0	1	1	277.511	-0.199813	-0.199964	-0.000392114	2	-7.3641e-05	7.84088e-08
2	1	0	0	1	277.777	-0.186485	-0.186665	-0.000293989	2	-7.37231e-05	5.48773e-08
2	1	0	1	1	278.044	-0.173153	-0.173331	-0.00019084	2	-7.37782e-05	3.30785e-08
2	1	0	0	1	278.31	-0.159825	-0.159977	-8.71059e-05	2	-7.38056e-05	1.39349e-08
2	1	0	0	1	278.577	-0.146503	-0.14665	1.14947e-05	2	-7.3806e-05	1.6857e-09
2	1	0	1	1	278.843	-0.133175	-0.133307	0.000109591	2	-7.37801e-05	1.46092e-08
2	1	0	0	1	279.11	-0.119843	-0.11998	0.000204659	2	-7.37285e-05	2.4555e-08
2	1	0	1	1	279.377	-0.106514	-0.106622	0.000293059	2	-7.36523e-05	3.12467e-08
2	1	0	0	1	279.643	-0.0931836	-0.0932901	0.000376512	2	-7.35534e-05	3.51249e-08
2	1	0	1	1	279.91	-0.0798587	-0.0799832	0.000443341	2	-7.34342e-05	3.54598e-08
2	1	0	1	1	280.176	-0.0665337	-0.0666714	0.000493886	2	-7.32992e-05	3.2928e-08
2	1	0	0	1	280.443	-0.0532033	-0.0533469	0.00052631	2	-7.31532e-05	2.8077e-08
2	1	0	1	1	280.709	-0.0398739	-0.0400053	0.000541333	2	-7.3001e-05	2.16562e-08
2	1	0	0	1	280.976	-0.0265434	-0.02665	0.000540775	2	-7.28467e-05	1.44117e-08
2	1	0	1	1	281.243	-0.0132141	-0.0133525	0.000530093	2	-7.26941e-05	7.07806e-09
2	1	0	0	1	281.509	0.000124452	-2.95164e-05	0.000516775	2	-7.25447e-05	1.52533e-11
2	1	0	0	1	281.776	0.0134358	0.0133402	0.000500019	2	-7.23994e-05	6.67037e-09
2	1	0	1	1	282.042	0.0267673	0.0266618	0.000484765	2	-7.22582e-05	1.29247e-08
2	1	0	0	1	282.309	0.0400956	0.0400042	0.000470915	2	-7.21211e-05	1.88386e-08
2	1	0	1	1	282.575	0.0534272	0.0533575	0.000459807	2	-7.19871e-05	2.45341e-08
2	1	0	0	1	282.842	0.0667554	0.0666738	0.000451786	2	-7.18557e-05	3.01223e-08
2	1	0	0	1	283.108	0.080077	0.0800027	0.00044667	2	-7.17262e-05	3.57348e-08
2	1	0	1	1	283.375	0.0934052	0.0933158	0.000443603	2	-7.15977e-05	4.13951e-08
2	0	0	0	1	283.542	0.0980701	0.0979667	0.000318648	2	-7.15242e-05	3.12169e-08
2	0	0	0	1	283.809	0.0847485	0.084636	0.000113517	2	-7.14797e-05	9.6076e-09
2	0	0	1	1	284.075	0.0714203	0.0713036	-3.03145e-05	2	-7.14797e-05	2.16153e-09
2	0	0	0	1	284.342	0.0580887	0.0579919	-0.000150652	2	-7.15143e-05	8.73661e-09
2	0	0	1	1	284.609	0.0447605	0.0446403	-0.000255509	2	-7.15787e-05	1.1406e-08
2	0	0	0	1	284.875	0.0314289	0.0312693	-0.000346562	2	-7.16692e-05	1.08368e-08
2	0	0	1	1	285.142	0.0181051	0.0179657	-0.000429411	2	-7.17828e-05	7.71468e-09
2	0	0	1	1	285.408	0.00477906	0.00464524	-0.000505355	2	-7.19174e-05	2.34749e-09
2	0	0	0	1	285.675	-0.00854919	-0.00873346	-0.000576175	2	-7.20718e-05	5.032e-09
2	0	0	1	1	285.941	-0.0218808	-0.0220506	-0.000641471	2	-7.2244e-05	1.41448e-08
2	0	0	0	1	286.208	-0.0352101	-0.0353856	-0.000702467	2	-7.2433e-05	2.48572e-08
2	0	0	1	1	286.475	-0.0485406	-0.0487454	-0.000759856	2	-7.26379e-05	3.70395e-08
2	0	0	0	1	286.741	-0.0618655	-0.0620666	-0.000815711	2	-7.28576e-05	5.06284e-08
2	0	0	0	1	287.008	-0.0751905	-0.075406	-0.000868459	2	-7.30919e-05	6.5487e-08
2	0	0	1	1	287.274	-0.0885209	-0.0886932	-0.000921147	2	-7.33402e-05	8.16995e-08
2	0	0	1	1	287.574	-0.10352	-0.103674	-0.000964806	2	-7.36374e-05	1.00025e-07
2	0	0	1	1	287.841	-0.116841	-0.116987	-0.00101605	2	-7.39142e-05	1.18864e-07
2	0	0	0	1	288.107	-0.130169	-0.130339	-0.0010699	2	-7.42053e-05	1.39449e-07
2	0	0	1	1	288.374	-0.143501	-0.143676	-0.00112789	2	-7.45113e-05	1.62051e-07
2	0	0	0	1	288.64	-0.15683	-0.156984	-0.00119425	2	-7.48337e-05	1.87479e-07
2	0	0	1	1	288.907	-0.170161	-0.170347	-0.00127114	2	-7.51752e-05	2.16535e-07
2	0	0	0	1	289.173	-0.183485	-0.183668	-0.00135953	2	-7.55386e-05	2.49703e-07
2	0	0	0	1	289.44	-0.196811	-0.196968	-0.0014566	2	-7.59268e-05	2.86904e-07
2	0	0	1	1	289.707	-0.21014	-0.210314	-0.00156383	2	-7.63426e-05	3.28896e-07
2	0	0	0	1	289.973	-0.223471	-0.22368	-0.00167952	2	-7.67881e-05	3.75675e-07
2	0	0	1	1	290.24	-0.236801	-0.236995	-0.00180369	2	-7.72655e-05	4.27467e-07
2	0	0	0	1	290.506	-0.25013	-0.250303	-0.0019344	2	-7.7777e-05	4.84185e-07
2	0	0	1	1	290.773	-0.263456	-0.263614	-0.00207374	2	-7.83242e-05	5.46668e-07
2	0	0	1	1	291.039	-0.27678	-0.276939	-0.00221783	2	-7.89095e-05	6.14203e-07
2	0	0	0	1	291.306	-0.290111	-0.290271	-0.00236999	2	-7.95345e-05	6.87937e-07
2	0	0	1	1	291.573	-0.30344	-0.303605	-0.00252906	2	-8.0201e-05	7.67835e-07
2	0	0	0	1	291.839	-0.316772	-0.316972	-0.00269369	2	-8.09106e-05	8.53826e-07
2	0	0	1	1	292.106	-0.3301	-0.330282	-0.00286569	2	-8.1665e-05	9.46484e-07
2	0	0	1	1	292.372	-0.343422	-0.343648	-0.0030459	2	-8.24658e-05	1.04672e-06
2	0	0	0	1	292.639	-0.35675	-0.356958	-0.00323037	2	-8.33159e-05	1.15311e-06
2	0	0	1	1	292.905	-0.370081	-0.370275	-0.00342117	2	-8.4216e-05	1.26677e-06
2	0	0	0	1	293.172	-0.38341	-0.383637	-0.00361447	2	-8.51675e-05	1.38665e-06
2	0	0	1	1	293.439	-0.396741	-0.396986	-0.00381289	2	-8.61713e-05	1.51366e-06
2	0	0	0	1	293.705	-0.410065	-0.410262	-0.00400834	2	-8.7227e-05	1.64447e-06
2	0	0	0	1	293.972	-0.423391	-0.423626	-0.00420646	2	-8.83353e-05	1.78197e-06
2	0	0	1	1	294.238	-0.436719	-0.43695	-0.00439878	2	-8.9496e-05	1.92205e-06
2	0	0	0	1	294.505	-0.450051	-0.450242	-0.00458908	2	-9.0708e-05	2.0662e-06
2	0	0	1	1	294.771	-0.46338	-0.463585	-0.00477565	2	-9.19704e-05	2.21392e-06
2	0	0	0	1	295.038	-0.476711	-0.476933	-0.00495979	2	-9.32822e-05	2.36549e-06
2	0	0	1	1	295.304	-0.490036	-0.490248	-0.00513832	2	-9.46417e-05	2.51905e-06
2	0	0	1	1	295.571	-0.503361	-0.503586	-0.00532121	2	-9.60492e-05	2.67969e-06
2	0	0	0	1	295.838	-0.516691	-0.516919	-0.00550341	2	-9.75059e-05	2.84481e-06
2	0	0	1	1	296.104	-0.53002	-0.530235	-0.00569519	2	-9.90124e-05	3.01979e-06
2	0	0	0	1	296.371	-0.543351	-0.543573	-0.00589489	2	-0.000100571	3.2043e-06
2	0	0	1	1	296.637	-0.55668	-0.556922	-0.0061148	2	-0.000102185	3.40547e-06
2	0	0	0	1	296.904	-0.570006	-0.570251	-0.00635014	2	-0.000103859	3.62117e-06
2	0	0	0	1	297.17	-0.58333	-0.58356	-0.00660928	2	-0.0001056	3.85691e-06
2	0	0	1	1	297.437	-0.596662	-0.596894	-0.00689538	2	-0.000107413	4.11581e-06
2	0	0	0	1	297.5	-0.599827	-0.60002	-0.00697011	2	-0.000107856	4.1822e-06