Folder: CV/TAP_Report/Data/Res_SHU (part 2)

File: 100 uM RS 10mM SHU_03_CV_C01_2.mpt
EC-Lab ASCII FILE
Nb header lines : 53

Cyclic Voltammetry

Run on channel : 1 (SN 0696)
User :
Electrode connection : standard
Ewe ctrl range : min = -10.00 V, max = 10.00 V
Ewe,I filtering : 50 kHz
Channel : Grounded
Acquisition started on : 05/17/2017 13:04:41
Saved on :
	File : 100 uM RS 10mM SHU_03_CV_C01.mpr
	Directory : \\userfs\st659\w2k\EC-Lab\Data\ITO Characterisation 17-5-17\
	Host : 144.32.136.43
Device : SP-300 (SN 0182)
Address : USB
EC-Lab for windows v10.44 (software)
Internet server v10.44 (firmware)
Command interpretor v10.44 (firmware)
Electrode material :
Initial state :
Electrolyte :
Comments :
Cable : standard
Electrode surface area : 0.001 cm²
Characteristic mass : 0.001 g
Equivalent Weight : 0.000 g/eq.
Density : 0.000 g/cm3
Ei (V)              0.000
vs.                 Eoc
dE/dt               100.000
dE/dt unit          mV/s
E1 (V)              0.100
vs.                 Ref
Step percent        50
N                   10
E range min (V)     -10.000
E range max (V)     10.000
I Range             Auto
I Range min         Unset
I Range max         Unset
I Range init        Unset
Bandwidth           8
E2 (V)              -0.600
vs.                 Ref
nc cycles           2
Reverse Scan        1
Ef (V)              0.000
vs.                 Eoc

mode	ox/red	error	control changes	counter inc.	time/s	control/V	Ewe/V	<I>/mA	cycle number	(Q-Qo)/C	P/W
2	1	0	1	1	357.967	-0.60016	-0.600336	-0.0083592	2	-2.6652e-05	5.01833e-06
2	1	0	0	1	358.085	-0.588332	-0.588584	-0.0069783	2	-2.75244e-05	4.10732e-06
2	1	0	0	1	358.218	-0.57501	-0.575231	-0.00624998	2	-2.83955e-05	3.59518e-06
2	1	0	1	1	358.352	-0.561668	-0.561907	-0.00567505	2	-2.91824e-05	3.18885e-06
2	1	0	1	1	358.485	-0.548347	-0.548573	-0.0051981	2	-2.98985e-05	2.85154e-06
2	1	0	0	1	358.618	-0.535021	-0.535232	-0.0047875	2	-3.05562e-05	2.56242e-06
2	1	0	0	1	358.752	-0.52169	-0.52191	-0.00442907	2	-3.11628e-05	2.31158e-06
2	1	0	0	1	358.885	-0.508369	-0.508585	-0.00410332	2	-3.17235e-05	2.08689e-06
2	1	0	1	1	359.018	-0.495027	-0.495238	-0.00381025	2	-3.22438e-05	1.88698e-06
2	1	0	1	1	359.151	-0.481708	-0.48192	-0.00353764	2	-3.27257e-05	1.70486e-06
2	1	0	0	1	359.285	-0.468371	-0.468589	-0.00328264	2	-3.31733e-05	1.53821e-06
2	1	0	0	1	359.418	-0.455049	-0.455218	-0.00304595	2	-3.35875e-05	1.38657e-06
2	1	0	0	1	359.551	-0.441727	-0.441946	-0.00282227	2	-3.39711e-05	1.24729e-06
2	1	0	1	1	359.685	-0.428388	-0.428596	-0.00260925	2	-3.43261e-05	1.11831e-06
2	1	0	1	1	359.818	-0.415071	-0.415305	-0.00240737	2	-3.4653e-05	9.99794e-07
2	1	0	0	1	359.951	-0.401729	-0.401951	-0.00221453	2	-3.49542e-05	8.90132e-07
2	1	0	0	1	360.084	-0.388408	-0.388629	-0.00203276	2	-3.52299e-05	7.8999e-07
2	1	0	0	1	360.218	-0.375086	-0.37529	-0.00185705	2	-3.54818e-05	6.96931e-07
2	1	0	1	1	360.351	-0.361751	-0.361954	-0.00169482	2	-3.57115e-05	6.13446e-07
2	1	0	1	1	360.484	-0.34843	-0.348645	-0.00153559	2	-3.59195e-05	5.35376e-07
2	1	0	0	1	360.618	-0.335088	-0.335269	-0.0013881	2	-3.61074e-05	4.65385e-07
2	1	0	0	1	360.751	-0.321766	-0.321951	-0.00124727	2	-3.62757e-05	4.01561e-07
2	1	0	1	1	360.884	-0.308432	-0.308606	-0.00111357	2	-3.64261e-05	3.43654e-07
2	1	0	1	1	361.017	-0.29511	-0.295266	-0.000985216	2	-3.65588e-05	2.90901e-07
2	1	0	1	1	361.151	-0.281788	-0.281944	-0.000865602	2	-3.6675e-05	2.44051e-07
2	1	0	0	1	361.284	-0.268447	-0.268615	-0.000748982	2	-3.67757e-05	2.01188e-07
2	1	0	0	1	361.417	-0.25513	-0.255314	-0.000639059	2	-3.6861e-05	1.63161e-07
2	1	0	1	1	361.566	-0.240292	-0.240458	-0.000506656	2	-3.69401e-05	1.2183e-07
2	1	0	1	1	361.714	-0.22547	-0.225608	-0.000360429	2	-3.70022e-05	8.13156e-08
2	1	0	1	1	361.847	-0.212148	-0.212299	-0.000253718	2	-3.70415e-05	5.38641e-08
2	1	0	0	1	361.98	-0.198807	-0.198921	-0.000148089	2	-3.70668e-05	2.94582e-08
2	1	0	0	1	362.114	-0.18549	-0.185621	-4.10142e-05	2	-3.70778e-05	7.61309e-09
2	1	0	1	1	362.247	-0.17215	-0.172284	6.92859e-05	2	-3.70744e-05	1.19369e-08
2	1	0	1	1	362.38	-0.158829	-0.158926	0.000180877	2	-3.70561e-05	2.87461e-08
2	1	0	1	1	362.513	-0.145507	-0.145621	0.000291073	2	-3.70231e-05	4.23862e-08
2	1	0	0	1	362.647	-0.13217	-0.132263	0.000400247	2	-3.69755e-05	5.29379e-08
2	1	0	0	1	362.78	-0.11885	-0.118929	0.000510096	2	-3.69132e-05	6.06653e-08
2	1	0	1	1	362.913	-0.105509	-0.105567	0.00061782	2	-3.68362e-05	6.52214e-08
2	1	0	1	1	363.047	-0.0921873	-0.0922532	0.00072757	2	-3.67448e-05	6.71207e-08
2	1	0	0	1	363.18	-0.0788568	-0.0789332	0.000829066	2	-3.66394e-05	6.54409e-08
2	1	0	0	1	363.313	-0.0655308	-0.0655866	0.000919905	2	-3.6521e-05	6.03334e-08
2	1	0	0	1	363.463	-0.0505397	-0.05066	0.000973309	2	-3.63744e-05	4.93079e-08
2	1	0	1	1	363.613	-0.0355489	-0.0356535	0.00102409	2	-3.62172e-05	3.65126e-08
2	1	0	0	1	363.746	-0.0222073	-0.022306	0.00105803	2	-3.60713e-05	2.36003e-08
2	1	0	0	1	363.88	-0.00888573	-0.00900384	0.00107654	2	-3.59221e-05	9.69297e-09
2	1	0	1	1	364.013	0.00444919	0.00434939	0.00108329	2	-3.57711e-05	4.71164e-09
2	1	0	1	1	364.146	0.0177708	0.0176776	0.00107962	2	-3.56201e-05	1.9085e-08
2	1	0	1	1	364.279	0.0310924	0.0309902	0.00107223	2	-3.54699e-05	3.32287e-08
2	1	0	0	1	364.413	0.0444339	0.0443545	0.00106379	2	-3.53205e-05	4.71838e-08
2	1	0	0	1	364.546	0.0577488	0.0576915	0.00105461	2	-3.51725e-05	6.08422e-08
2	1	0	1	1	364.679	0.0710904	0.0710112	0.00104537	2	-3.50256e-05	7.42332e-08
2	1	0	1	1	364.813	0.084412	0.0843058	0.00103918	2	-3.48799e-05	8.76091e-08
2	1	0	1	1	364.946	0.0977336	0.0976398	0.00103687	2	-3.47348e-05	1.0124e-07
2	0	0	0	1	365.02	0.0947436	0.0946333	0.000687042	2	-3.46742e-05	6.5017e-08
2	0	0	1	1	365.17	0.079745	0.0796447	0.000414967	2	-3.46012e-05	3.305e-08
2	0	0	0	1	365.32	0.0647462	0.0646158	0.000192141	2	-3.45603e-05	1.24154e-08
2	0	0	0	1	365.453	0.0514246	0.0512646	4.55289e-05	2	-3.45464e-05	2.33402e-09
2	0	0	0	1	365.586	0.038103	0.0379325	-8.38108e-05	2	-3.45508e-05	3.17916e-09
2	0	0	1	1	365.719	0.0247637	0.0245596	-0.000204688	2	-3.45719e-05	5.02706e-09
2	0	0	1	1	365.853	0.0114465	0.011251	-0.000314789	2	-3.46082e-05	3.54168e-09
2	0	0	0	1	365.986	-0.00189506	-0.00211986	-0.000417277	2	-3.46588e-05	8.84569e-10
2	0	0	0	1	366.119	-0.0152166	-0.0154437	-0.000513605	2	-3.47226e-05	7.93196e-09
2	0	0	0	1	366.252	-0.0285382	-0.0287315	-0.000605897	2	-3.47988e-05	1.74083e-08
2	0	0	1	1	366.386	-0.0418732	-0.0421086	-0.000693945	2	-3.48871e-05	2.92211e-08
2	0	0	1	1	366.519	-0.0551947	-0.0554394	-0.000777773	2	-3.49867e-05	4.31193e-08
2	0	0	0	1	366.652	-0.0685363	-0.0687629	-0.000858232	2	-3.50975e-05	5.90145e-08
2	0	0	0	1	366.786	-0.0818579	-0.0821066	-0.000939207	2	-3.52189e-05	7.71151e-08
2	0	0	1	1	366.952	-0.0985182	-0.0986574	-0.000993301	2	-3.53857e-05	9.79965e-08
2	0	0	0	1	367.086	-0.111853	-0.111964	-0.00106815	2	-3.55301e-05	1.19594e-07
2	0	0	0	1	367.219	-0.125175	-0.125304	-0.00114564	2	-3.56844e-05	1.43554e-07
2	0	0	0	1	367.352	-0.138496	-0.138645	-0.00122085	2	-3.58489e-05	1.69266e-07
2	0	0	1	1	367.485	-0.151838	-0.151984	-0.00130203	2	-3.60241e-05	1.97889e-07
2	0	0	1	1	367.619	-0.165153	-0.165303	-0.00138993	2	-3.62103e-05	2.29761e-07
2	0	0	0	1	367.752	-0.178494	-0.178656	-0.00148661	2	-3.64091e-05	2.65591e-07
2	0	0	0	1	367.885	-0.191816	-0.191975	-0.00158934	2	-3.66209e-05	3.05113e-07
2	0	0	0	1	368.018	-0.205138	-0.205305	-0.00169803	2	-3.68468e-05	3.48614e-07
2	0	0	1	1	368.152	-0.218475	-0.218649	-0.00181017	2	-3.70878e-05	3.95793e-07
2	0	0	1	1	368.285	-0.231794	-0.231971	-0.00192535	2	-3.73435e-05	4.46627e-07
2	0	0	0	1	368.418	-0.245136	-0.245317	-0.00204559	2	-3.76153e-05	5.01818e-07
2	0	0	0	1	368.552	-0.258457	-0.258624	-0.00217087	2	-3.79031e-05	5.61437e-07
2	0	0	1	1	368.685	-0.271786	-0.271938	-0.00230199	2	-3.82081e-05	6.26e-07
2	0	0	1	1	368.818	-0.285114	-0.285252	-0.00243909	2	-3.85309e-05	6.95757e-07
2	0	0	1	1	368.951	-0.298435	-0.298604	-0.00258338	2	-3.88724e-05	7.71409e-07
2	0	0	0	1	369.085	-0.311777	-0.311982	-0.00273619	2	-3.9234e-05	8.53642e-07
2	0	0	0	1	369.218	-0.325099	-0.325272	-0.00289508	2	-3.96159e-05	9.41688e-07
2	0	0	1	1	369.351	-0.338433	-0.338623	-0.00306561	2	-4.00202e-05	1.03809e-06
2	0	0	1	1	369.485	-0.351755	-0.351988	-0.00324142	2	-4.04472e-05	1.14094e-06
2	0	0	1	1	369.618	-0.365077	-0.365288	-0.00342794	2	-4.08982e-05	1.25218e-06
2	0	0	0	1	369.751	-0.378418	-0.378632	-0.00362104	2	-4.13754e-05	1.37104e-06
2	0	0	0	1	369.884	-0.391733	-0.391976	-0.00382557	2	-4.18783e-05	1.49953e-06
2	0	0	1	1	370.018	-0.405075	-0.405311	-0.00403137	2	-4.24094e-05	1.63396e-06
2	0	0	1	1	370.151	-0.418396	-0.418632	-0.0042429	2	-4.29676e-05	1.77621e-06
2	0	0	1	1	370.284	-0.431718	-0.431917	-0.00445942	2	-4.35542e-05	1.9261e-06
2	0	0	0	1	370.418	-0.445053	-0.445259	-0.00467347	2	-4.41704e-05	2.08091e-06
2	0	0	0	1	370.551	-0.458374	-0.458583	-0.0048888	2	-4.48145e-05	2.24192e-06
2	0	0	1	1	370.684	-0.471716	-0.471938	-0.00511016	2	-4.54885e-05	2.41168e-06
2	0	0	1	1	370.817	-0.485038	-0.48525	-0.00532329	2	-4.61904e-05	2.58312e-06
2	0	0	0	1	370.951	-0.498364	-0.498589	-0.00553968	2	-4.69215e-05	2.76202e-06
2	0	0	0	1	371.084	-0.511694	-0.511927	-0.00575879	2	-4.76818e-05	2.94808e-06
2	0	0	0	1	371.217	-0.525016	-0.525254	-0.00598105	2	-4.84707e-05	3.14157e-06
2	0	0	1	1	371.351	-0.538357	-0.538558	-0.00621426	2	-4.92911e-05	3.34674e-06
2	0	0	1	1	371.484	-0.551677	-0.551899	-0.00646329	2	-5.01423e-05	3.56708e-06
2	0	0	0	1	371.617	-0.565014	-0.565244	-0.00673008	2	-5.10291e-05	3.80414e-06
2	0	0	0	1	371.75	-0.578335	-0.578564	-0.00701582	2	-5.19517e-05	4.0591e-06
2	0	0	0	1	371.884	-0.591657	-0.5919	-0.00733806	2	-5.29149e-05	4.34339e-06
2	0	0	0	1	371.965	-0.599827	-0.60002	-0.00755292	2	-5.35277e-05	4.5319e-06

File: 100 uM RS 10mM SHU_04_CV_C01_2.mpt
EC-Lab ASCII FILE
Nb header lines : 53

Cyclic Voltammetry

Run on channel : 1 (SN 0696)
User :
Electrode connection : standard
Ewe ctrl range : min = -10.00 V, max = 10.00 V
Ewe,I filtering : 50 kHz
Channel : Grounded
Acquisition started on : 05/17/2017 13:04:41
Saved on :
	File : 100 uM RS 10mM SHU_04_CV_C01.mpr
	Directory : \\userfs\st659\w2k\EC-Lab\Data\ITO Characterisation 17-5-17\
	Host : 144.32.136.43
Device : SP-300 (SN 0182)
Address : USB
EC-Lab for windows v10.44 (software)
Internet server v10.44 (firmware)
Command interpretor v10.44 (firmware)
Electrode material :
Initial state :
Electrolyte :
Comments :
Cable : standard
Electrode surface area : 0.001 cm²
Characteristic mass : 0.001 g
Equivalent Weight : 0.000 g/eq.
Density : 0.000 g/cm3
Ei (V)              0.000
vs.                 Eoc
dE/dt               250.000
dE/dt unit          mV/s
E1 (V)              0.100
vs.                 Ref
Step percent        50
N                   10
E range min (V)     -10.000
E range max (V)     10.000
I Range             Auto
I Range min         Unset
I Range max         Unset
I Range init        Unset
Bandwidth           8
E2 (V)              -0.600
vs.                 Ref
nc cycles           2
Reverse Scan        1
Ef (V)              0.000
vs.                 Eoc

mode	ox/red	error	control changes	counter inc.	time/s	control/V	Ewe/V	<I>/mA	cycle number	(Q-Qo)/C	P/W
2	1	0	0	1	401.17	-0.60016	-0.600417	-0.0102251	2	-1.29362e-05	6.13934e-06
2	1	0	1	1	401.217	-0.588315	-0.588523	-0.00803366	2	-1.3344e-05	4.72799e-06
2	1	0	1	1	401.27	-0.57502	-0.575253	-0.00711036	2	-1.37423e-05	4.09025e-06
2	1	0	0	1	401.324	-0.561658	-0.561881	-0.00639456	2	-1.4099e-05	3.59298e-06
2	1	0	0	1	401.377	-0.548363	-0.548568	-0.00580649	2	-1.442e-05	3.18526e-06
2	1	0	1	1	401.43	-0.535018	-0.535222	-0.0053012	2	-1.47131e-05	2.83732e-06
2	1	0	1	1	401.484	-0.521707	-0.521904	-0.0048629	2	-1.49802e-05	2.53797e-06
2	1	0	0	1	401.537	-0.508362	-0.508589	-0.00446658	2	-1.52262e-05	2.27165e-06
2	1	0	1	1	401.59	-0.495017	-0.495219	-0.00411507	2	-1.54522e-05	2.03786e-06
2	1	0	1	1	401.644	-0.481711	-0.481925	-0.0037883	2	-1.56594e-05	1.82567e-06
2	1	0	0	1	401.697	-0.468361	-0.468555	-0.00348463	2	-1.58506e-05	1.63274e-06
2	1	0	0	1	401.75	-0.455066	-0.455242	-0.00320631	2	-1.60256e-05	1.45965e-06
2	1	0	1	1	401.804	-0.441721	-0.441923	-0.0029476	2	-1.61868e-05	1.30261e-06
2	1	0	1	1	401.857	-0.428409	-0.428615	-0.00269517	2	-1.63338e-05	1.15519e-06
2	1	0	0	1	401.91	-0.415064	-0.415268	-0.00246122	2	-1.64685e-05	1.02207e-06
2	1	0	1	1	401.964	-0.401719	-0.401953	-0.00223985	2	-1.65911e-05	9.00313e-07
2	1	0	1	1	402.017	-0.388408	-0.388631	-0.00203126	2	-1.67016e-05	7.8941e-07
2	1	0	0	1	402.07	-0.375063	-0.37526	-0.00182949	2	-1.68016e-05	6.86536e-07
2	1	0	0	1	402.123	-0.361768	-0.361981	-0.00164368	2	-1.68909e-05	5.94979e-07
2	1	0	1	1	402.177	-0.348406	-0.348597	-0.00145976	2	-1.69708e-05	5.08869e-07
2	1	0	1	1	402.23	-0.335111	-0.335291	-0.00129421	2	-1.7041e-05	4.33937e-07
2	1	0	0	1	402.283	-0.321766	-0.321946	-0.00113119	2	-1.71027e-05	3.64182e-07
2	1	0	1	1	402.337	-0.308422	-0.308609	-0.000978342	2	-1.7156e-05	3.01925e-07
2	1	0	1	1	402.39	-0.29511	-0.295265	-0.000826312	2	-1.7201e-05	2.43981e-07
2	1	0	0	1	402.443	-0.281765	-0.281907	-0.000689539	2	-1.72385e-05	1.94386e-07
2	1	0	0	1	402.497	-0.26847	-0.268646	-0.000552986	2	-1.72686e-05	1.48557e-07
2	1	0	1	1	402.55	-0.255109	-0.255286	-0.00042042	2	-1.72915e-05	1.07327e-07
2	1	0	1	1	402.634	-0.234117	-0.234222	-0.000165622	2	-1.73164e-05	3.87923e-08
2	1	0	1	1	402.687	-0.220822	-0.220912	-3.42676e-05	2	-1.73214e-05	7.57011e-09
2	1	0	0	1	402.741	-0.20746	-0.207556	9.49442e-05	2	-1.73194e-05	1.97062e-08
2	1	0	0	1	402.794	-0.194165	-0.194246	0.000225415	2	-1.73105e-05	4.3786e-08
2	1	0	1	1	402.847	-0.18082	-0.180898	0.000358515	2	-1.72947e-05	6.48549e-08
2	1	0	1	1	402.9	-0.167509	-0.167588	0.000494128	2	-1.72717e-05	8.281e-08
2	1	0	0	1	402.954	-0.154164	-0.154229	0.000630049	2	-1.72414e-05	9.71719e-08
2	1	0	1	1	403.007	-0.140819	-0.140877	0.000767355	2	-1.72038e-05	1.08103e-07
2	1	0	1	1	403.06	-0.127507	-0.127554	0.000904028	2	-1.71589e-05	1.15312e-07
2	1	0	1	1	403.144	-0.106515	-0.10662	0.00107024	2	-1.7074e-05	1.14108e-07
2	1	0	0	1	403.198	-0.0931703	-0.0932822	0.00121304	2	-1.70101e-05	1.13155e-07
2	1	0	0	1	403.251	-0.0798587	-0.0799872	0.00135684	2	-1.69387e-05	1.0853e-07
2	1	0	1	1	403.304	-0.0665138	-0.0666522	0.00149101	2	-1.68597e-05	9.93787e-08
2	1	0	1	1	403.358	-0.0532188	-0.0533695	0.00162483	2	-1.67739e-05	8.67166e-08
2	1	0	0	1	403.411	-0.0398573	-0.0399786	0.00174696	2	-1.66809e-05	6.98409e-08
2	1	0	0	1	403.464	-0.0265623	-0.0266896	0.00184162	2	-1.65824e-05	4.91521e-08
2	1	0	1	1	403.518	-0.0132174	-0.0133646	0.00192306	2	-1.64787e-05	2.57008e-08
2	1	0	0	1	403.571	0.000129721	-1.60072e-05	0.00199355	2	-1.63714e-05	3.1911e-11
2	1	0	0	1	403.624	0.0134391	0.0133441	0.00203521	2	-1.6261e-05	2.7158e-08
2	1	0	1	1	403.678	0.026784	0.0266835	0.00206094	2	-1.61486e-05	5.49932e-08
2	1	0	1	1	403.731	0.0400789	0.0399535	0.00207653	2	-1.60354e-05	8.29646e-08
2	1	0	0	1	403.784	0.0534405	0.0533697	0.00208732	2	-1.59211e-05	1.11399e-07
2	1	0	0	1	403.837	0.0667354	0.0666447	0.00208722	2	-1.58071e-05	1.39102e-07
2	1	0	1	1	403.891	0.0800803	0.0800038	0.00208624	2	-1.56927e-05	1.66907e-07
2	1	0	1	1	403.944	0.0933919	0.0933005	0.0020837	2	-1.55789e-05	1.9441e-07
2	0	0	1	1	403.978	0.0980735	0.0979586	0.00145525	2	-1.55113e-05	1.42554e-07
2	0	0	1	1	404.031	0.0847619	0.084636	0.000948694	2	-1.54531e-05	8.02937e-08
2	0	0	0	1	404.085	0.071417	0.0713066	0.000670728	2	-1.54132e-05	4.78274e-08
2	0	0	1	1	404.138	0.0580721	0.0579751	0.000447597	2	-1.53864e-05	2.59495e-08
2	0	0	1	1	404.191	0.0447771	0.0446626	0.000250647	2	-1.53709e-05	1.11945e-08
2	0	0	0	1	404.245	0.0314156	0.0312641	7.83489e-05	2	-1.53652e-05	2.44951e-09
2	0	0	0	1	404.298	0.0181206	0.0179869	-8.01757e-05	2	-1.53683e-05	1.44211e-09
2	0	0	0	1	404.382	-0.00288801	-0.00314143	-0.000368134	2	-1.53901e-05	1.15647e-09
2	0	0	1	1	404.435	-0.0162329	-0.0164913	-0.000504469	2	-1.54138e-05	8.31936e-09
2	0	0	1	1	404.488	-0.0295279	-0.0297783	-0.000639046	2	-1.54445e-05	1.90297e-08
2	0	0	0	1	404.542	-0.0428728	-0.0431592	-0.000769497	2	-1.54824e-05	3.32109e-08
2	0	0	0	1	404.595	-0.0561844	-0.0564984	-0.000893272	2	-1.5527e-05	5.04685e-08
2	0	0	1	1	404.664	-0.0733651	-0.0736034	-0.00102299	2	-1.55941e-05	7.52952e-08
2	0	0	1	1	404.732	-0.0905379	-0.0906857	-0.00114714	2	-1.56708e-05	1.04029e-07
2	0	0	1	1	404.786	-0.103833	-0.103996	-0.0012662	2	-1.57381e-05	1.3168e-07
2	0	0	0	1	404.839	-0.117178	-0.117336	-0.00137943	2	-1.58117e-05	1.61856e-07
2	0	0	1	1	404.892	-0.1305	-0.130686	-0.00149594	2	-1.58913e-05	1.95499e-07
2	0	0	1	1	404.946	-0.143834	-0.144018	-0.00160629	2	-1.5977e-05	2.31335e-07
2	0	0	0	1	404.999	-0.157179	-0.157358	-0.0017279	2	-1.6069e-05	2.71899e-07
2	0	0	0	1	405.052	-0.170474	-0.170675	-0.0018522	2	-1.61673e-05	3.16124e-07
2	0	0	1	1	405.106	-0.183836	-0.184034	-0.00198794	2	-1.62729e-05	3.65849e-07
2	0	0	1	1	405.159	-0.197131	-0.197319	-0.00212337	2	-1.63853e-05	4.18982e-07
2	0	0	0	1	405.212	-0.210476	-0.210667	-0.00227029	2	-1.65056e-05	4.78275e-07
2	0	0	0	1	405.265	-0.223787	-0.224006	-0.00240802	2	-1.66329e-05	5.39411e-07
2	0	0	1	1	405.319	-0.237132	-0.237323	-0.00254433	2	-1.67681e-05	6.03827e-07
2	0	0	0	1	405.372	-0.250477	-0.250693	-0.0026848	2	-1.69107e-05	6.73063e-07
2	0	0	0	1	405.425	-0.263789	-0.263979	-0.00282615	2	-1.70601e-05	7.46044e-07
2	0	0	1	1	405.479	-0.277133	-0.277325	-0.00296328	2	-1.72175e-05	8.21792e-07
2	0	0	1	1	405.532	-0.290428	-0.29062	-0.00311344	2	-1.73821e-05	9.04829e-07
2	0	0	0	1	405.585	-0.303773	-0.303986	-0.00326647	2	-1.75554e-05	9.92959e-07
2	0	0	0	1	405.639	-0.317085	-0.317293	-0.00343183	2	-1.77366e-05	1.0889e-06
2	0	0	1	1	405.692	-0.33043	-0.330647	-0.00360425	2	-1.79273e-05	1.19173e-06
2	0	0	0	1	405.745	-0.343775	-0.344008	-0.00378753	2	-1.81276e-05	1.30294e-06
2	0	0	0	1	405.799	-0.357086	-0.357313	-0.00397638	2	-1.83372e-05	1.42081e-06
2	0	0	1	1	405.852	-0.370431	-0.370639	-0.00418542	2	-1.85581e-05	1.55128e-06
2	0	0	1	1	405.905	-0.383726	-0.38398	-0.00440849	2	-1.87896e-05	1.69277e-06
2	0	0	0	1	405.959	-0.397088	-0.397348	-0.00463468	2	-1.90339e-05	1.84158e-06
2	0	0	0	1	406.012	-0.410383	-0.410605	-0.0048659	2	-1.92895e-05	1.99796e-06
2	0	0	1	1	406.065	-0.423728	-0.42397	-0.005118	2	-1.95592e-05	2.16988e-06
2	0	0	0	1	406.118	-0.43705	-0.437278	-0.00536943	2	-1.98415e-05	2.34793e-06
2	0	0	0	1	406.172	-0.450384	-0.45059	-0.00563078	2	-2.01379e-05	2.53718e-06
2	0	0	1	1	406.225	-0.463729	-0.463947	-0.00590072	2	-2.04489e-05	2.73762e-06
2	0	0	1	1	406.278	-0.477024	-0.47727	-0.00617961	2	-2.07733e-05	2.94934e-06
2	0	0	0	1	406.332	-0.490385	-0.490627	-0.00645775	2	-2.11139e-05	3.16834e-06
2	0	0	0	1	406.385	-0.50368	-0.503924	-0.00674499	2	-2.14679e-05	3.39896e-06
2	0	0	1	1	406.438	-0.517025	-0.517269	-0.00703062	2	-2.18387e-05	3.63672e-06
2	0	0	1	1	406.492	-0.530337	-0.53058	-0.00734205	2	-2.2224e-05	3.89555e-06
2	0	0	0	1	406.545	-0.543682	-0.543909	-0.00764838	2	-2.26271e-05	4.16002e-06
2	0	0	1	1	406.598	-0.557027	-0.557296	-0.00798132	2	-2.30474e-05	4.44796e-06
2	0	0	1	1	406.652	-0.570338	-0.570598	-0.00834485	2	-2.34846e-05	4.76155e-06
2	0	0	0	1	406.705	-0.583683	-0.583917	-0.00872231	2	-2.3943e-05	5.0931e-06
2	0	0	0	1	406.758	-0.596978	-0.597225	-0.00912359	2	-2.44208e-05	5.44884e-06
2	0	0	1	1	406.77	-0.599827	-0.600085	-0.00923701	2	-2.45258e-05	5.54299e-06