Folder: CV/TAP_Report/Data/Res_growth (part 5)

File: mg5_3_2.mpt
EC-Lab ASCII FILE
Nb header lines : 54

Cyclic Voltammetry

Run on channel : 1 (SN 0696)
User :
Electrode connection : standard
Ewe ctrl range : min = -2.50 V, max = 2.50 V
Ewe,I filtering : 50 kHz
Channel : Grounded
Acquisition started on : 01/18/2017 14:42:49
Saved on :
	File : mg5_3.mpr
	Directory : H:\EC-Lab\Data\Resazurin Bulk 18-1-17\
	Host : 144.32.136.43
Device : SP-300 (SN 0182)
Address : USB
EC-Lab for windows v10.44 (software)
Internet server v10.44 (firmware)
Command interpretor v10.44 (firmware)
Electrode material :
Initial state :
Electrolyte :
Comments :
Cable : standard
Reference electrode : SCE Saturated Calomel Electrode (0.241 V)
Electrode surface area : 0.001 cm²
Characteristic mass : 0.001 g
Equivalent Weight : 0.000 g/eq.
Density : 0.000 g/cm3
Ei (V)              0.000
vs.                 Eoc
dE/dt               100.000
dE/dt unit          mV/s
E1 (V)              0.000
vs.                 Ref
Step percent        50
N                   10
E range min (V)     -2.500
E range max (V)     2.500
I Range             Auto
I Range min         Unset
I Range max         Unset
I Range init        Unset
Bandwidth           8
E2 (V)              -0.900
vs.                 Ref
nc cycles           2
Reverse Scan        1
Ef (V)              0.000
vs.                 Eoc

mode	ox/red	error	control changes	counter inc.	time/s	control/V	Ewe/V	<I>/mA	cycle number	(Q-Qo)/C	P/W
2	1	0	0	1	18.0011	-0.0435688	-0.0443384	0.014572	2	-0.000744411	6.46101e-07
2	1	0	0	1	18.1411	-0.0295738	-0.0303528	0.0136651	2	-0.000742399	4.14774e-07
2	1	0	0	1	18.2811	-0.0155788	-0.0163729	0.0130774	2	-0.000740493	2.14115e-07
2	1	0	0	1	18.4211	-0.00158383	-0.00237163	0.0126001	2	-0.00073866	2.98828e-08
2	0	0	1	1	18.5525	-0.0115803	-0.0124131	0.00673486	2	-0.000737531	8.36008e-08
2	0	0	1	1	18.6925	-0.0255753	-0.0264049	0.00461815	2	-0.000736787	1.21942e-07
2	0	0	1	1	18.8625	-0.0425692	-0.0434094	0.00267758	2	-0.000736177	1.16232e-07
2	0	0	0	1	19.0023	-0.0565642	-0.0574126	0.00168683	2	-0.000735876	9.68452e-08
2	0	0	0	1	19.1423	-0.0705592	-0.0714026	0.000866648	2	-0.000735701	6.1881e-08
2	0	0	0	1	19.2823	-0.0845542	-0.0854058	0.000168678	2	-0.000735631	1.44061e-08
2	0	0	0	1	19.4223	-0.0985492	-0.0993974	-0.000463357	2	-0.000735654	4.60564e-08
2	0	0	1	1	19.5621	-0.112544	-0.113396	-0.00106893	2	-0.000735763	1.21212e-07
2	0	0	1	1	19.7021	-0.126539	-0.127386	-0.00164018	2	-0.000735954	2.08936e-07
2	0	0	1	1	19.8421	-0.140534	-0.141392	-0.0022726	2	-0.000736229	3.21327e-07
2	0	0	1	1	19.9821	-0.154529	-0.15538	-0.00293035	2	-0.000736594	4.55317e-07
2	0	0	0	1	20.1219	-0.168524	-0.169393	-0.00371493	2	-0.00073706	6.29284e-07
2	0	0	0	1	20.2619	-0.182519	-0.183376	-0.00462711	2	-0.000737644	8.48502e-07
2	0	0	0	1	20.4019	-0.196514	-0.197384	-0.00574952	2	-0.00073837	1.13487e-06
2	0	0	0	1	20.5419	-0.210509	-0.211365	-0.00707163	2	-0.000739265	1.4947e-06
2	0	0	1	1	20.6817	-0.224504	-0.225384	-0.00858011	2	-0.000740361	1.93382e-06
2	0	0	1	1	20.8372	-0.240049	-0.240927	-0.0103087	2	-0.000741843	2.48365e-06
2	0	0	0	1	20.9927	-0.255593	-0.256471	-0.0120599	2	-0.000743613	3.09301e-06
2	0	0	1	1	21.1325	-0.269588	-0.270463	-0.0137784	2	-0.00074546	3.72654e-06
2	0	0	1	1	21.2725	-0.283583	-0.284457	-0.0153663	2	-0.00074754	4.37104e-06
2	0	0	1	1	21.4125	-0.297578	-0.298432	-0.0169214	2	-0.00074984	5.04988e-06
2	0	0	1	1	21.5525	-0.311573	-0.312449	-0.0183752	2	-0.00075235	5.74131e-06
2	0	0	0	1	21.6923	-0.325568	-0.326422	-0.0198457	2	-0.000755061	6.47807e-06
2	0	0	0	1	21.8323	-0.339563	-0.340433	-0.0212953	2	-0.000757978	7.24961e-06
2	0	0	0	1	21.9723	-0.353558	-0.354419	-0.022759	2	-0.000761102	8.06624e-06
2	0	0	0	1	22.1123	-0.367553	-0.368406	-0.0243366	2	-0.000764438	8.96575e-06
2	0	0	1	1	22.2521	-0.381548	-0.382421	-0.0259302	2	-0.000767989	9.91625e-06
2	0	0	1	1	22.3921	-0.395543	-0.39641	-0.0275248	2	-0.00077177	1.09111e-05
2	0	0	1	1	22.5321	-0.409538	-0.410423	-0.0291559	2	-0.000775778	1.19662e-05
2	0	0	1	1	22.6721	-0.423533	-0.424411	-0.0307119	2	-0.000780006	1.30345e-05
2	0	0	0	1	22.8119	-0.437528	-0.438415	-0.032163	2	-0.00078444	1.41007e-05
2	0	0	0	1	22.9519	-0.451523	-0.4524	-0.0335201	2	-0.00078908	1.51645e-05
2	0	0	0	1	23.0919	-0.465518	-0.466382	-0.0348859	2	-0.000793908	1.62702e-05
2	0	0	0	1	23.2319	-0.479513	-0.480374	-0.0360957	2	-0.000798914	1.73394e-05
2	0	0	1	1	23.3717	-0.493508	-0.494372	-0.0372866	2	-0.000804082	1.84334e-05
2	0	0	1	1	23.5117	-0.507503	-0.508384	-0.0384906	2	-0.000809424	1.9568e-05
2	0	0	1	1	23.6517	-0.521498	-0.522371	-0.0396629	2	-0.000814933	2.07187e-05
2	0	0	1	1	23.7917	-0.535493	-0.536367	-0.0408787	2	-0.000820609	2.1926e-05
2	0	0	0	1	23.9315	-0.549488	-0.550374	-0.042151	2	-0.00082645	2.31988e-05
2	0	0	0	1	24.0715	-0.563483	-0.564354	-0.0434791	2	-0.000832483	2.45376e-05
2	0	0	0	1	24.2115	-0.577478	-0.57835	-0.0449114	2	-0.000838705	2.59745e-05
2	0	0	0	1	24.3515	-0.591473	-0.592341	-0.0463657	2	-0.000845128	2.74643e-05
2	0	0	1	1	24.4913	-0.605468	-0.606331	-0.0478613	2	-0.000851752	2.90198e-05
2	0	0	1	1	24.6313	-0.619463	-0.620338	-0.0495103	2	-0.000858605	3.07131e-05
2	0	0	1	1	24.7713	-0.633458	-0.634331	-0.0512058	2	-0.000865691	3.24814e-05
2	0	0	1	1	24.9113	-0.647453	-0.648319	-0.0530532	2	-0.000873028	3.43954e-05
2	0	0	0	1	25.0511	-0.661448	-0.662331	-0.0551445	2	-0.000880629	3.65239e-05
2	0	0	0	1	25.1911	-0.675443	-0.676298	-0.0574403	2	-0.000888544	3.88468e-05
2	0	0	0	1	25.3311	-0.689438	-0.690298	-0.0600308	2	-0.0008968	4.14391e-05
2	0	0	0	1	25.4711	-0.703433	-0.704316	-0.0628803	2	-0.000905436	4.42876e-05
2	0	0	1	1	25.6109	-0.717428	-0.718322	-0.066101	2	-0.000914486	4.74818e-05
2	0	0	1	1	25.7509	-0.731423	-0.732302	-0.0697992	2	-0.000924031	5.11142e-05
2	0	0	1	1	25.8909	-0.745418	-0.746292	-0.0739083	2	-0.000934121	5.51572e-05
2	0	0	1	1	26.0309	-0.759413	-0.760305	-0.0787351	2	-0.000944835	5.98627e-05
2	0	0	0	1	26.1707	-0.773408	-0.774288	-0.084237	2	-0.000956251	6.52237e-05
2	0	0	0	1	26.3107	-0.787403	-0.788287	-0.0905647	2	-0.000968516	7.1391e-05
2	0	0	0	1	26.4507	-0.801398	-0.802275	-0.0979305	2	-0.000981739	7.85672e-05
2	0	0	1	1	26.6217	-0.818492	-0.819344	-0.108019	2	-0.000999367	8.85048e-05
2	0	0	0	1	26.7615	-0.832487	-0.83333	-0.118094	2	-0.00101524	9.84115e-05
2	0	0	0	1	26.9015	-0.846482	-0.847329	-0.129886	2	-0.00103266	0.000110056
2	0	0	0	1	27.0415	-0.860477	-0.861323	-0.143484	2	-0.00105186	0.000123586
2	0	0	0	1	27.1815	-0.874472	-0.875307	-0.159388	2	-0.00107312	0.000139513
2	0	0	1	1	27.3213	-0.888467	-0.889289	-0.177878	2	-0.00109674	0.000158185
2	1	0	1	0	27.4529	-0.898463	-0.899309	-0.189364	2	-0.00112144	0.000170297
2	1	0	1	0	27.5929	-0.884468	-0.885299	-0.160061	2	-0.00114566	0.000141702
2	1	0	0	0	27.7327	-0.870473	-0.871307	-0.137584	2	-0.00116631	0.000119878
2	1	0	0	0	27.8727	-0.856478	-0.857306	-0.118959	2	-0.00118414	0.000101985
2	1	0	0	0	28.0127	-0.842483	-0.843312	-0.103401	2	-0.0011996	8.71994e-05
2	1	0	0	0	28.1526	-0.828497	-0.829319	-0.0903223	2	-0.00121304	7.49061e-05
2	1	0	1	0	28.2925	-0.814493	-0.815315	-0.0791711	2	-0.00122479	6.45494e-05
2	1	0	1	0	28.4325	-0.800498	-0.801316	-0.0696695	2	-0.00123511	5.58273e-05
2	1	0	1	0	28.5725	-0.786503	-0.787319	-0.0616529	2	-0.00124421	4.85405e-05
2	1	0	1	0	28.7125	-0.772508	-0.77335	-0.0548448	2	-0.00125227	4.24142e-05
2	1	0	0	0	28.8523	-0.758513	-0.759358	-0.0490995	2	-0.00125943	3.72841e-05
[...]
2	1	0	1	0	29.3021	-0.713529	-0.71435	-0.0353212	2	-0.00127802	2.52317e-05
2	1	0	1	0	29.4421	-0.699534	-0.700359	-0.0322896	2	-0.00128271	2.26143e-05
2	1	0	1	0	29.5821	-0.685539	-0.686358	-0.0295785	2	-0.00128699	2.03014e-05
2	1	0	1	0	29.7221	-0.671544	-0.672357	-0.0271982	2	-0.00129093	1.82869e-05
2	1	0	0	0	29.8619	-0.657549	-0.658362	-0.0250771	2	-0.00129454	1.65098e-05
2	1	0	0	0	30.0019	-0.643554	-0.644387	-0.0231558	2	-0.00129788	1.49213e-05
2	1	0	0	0	30.1419	-0.629559	-0.63039	-0.0214039	2	-0.00130096	1.34928e-05
2	1	0	0	0	30.2819	-0.615564	-0.616396	-0.0198419	2	-0.0013038	1.22305e-05
2	1	0	1	0	30.4217	-0.601569	-0.602384	-0.0183465	2	-0.00130643	1.10517e-05
2	1	0	1	0	30.5617	-0.587574	-0.58842	-0.0169841	2	-0.00130886	9.99376e-06
2	1	0	1	0	30.7017	-0.573579	-0.574406	-0.0157512	2	-0.00131111	9.04756e-06
2	1	0	1	0	30.8417	-0.559584	-0.560405	-0.0146134	2	-0.0013132	8.18943e-06
2	1	0	0	0	30.9815	-0.545589	-0.546409	-0.0134649	2	-0.00131512	7.35732e-06
2	1	0	0	0	31.1215	-0.531594	-0.532412	-0.0124103	2	-0.0013169	6.60737e-06
2	1	0	0	0	31.2615	-0.517599	-0.518416	-0.0113877	2	-0.00131853	5.90356e-06
2	1	0	0	0	31.4015	-0.503604	-0.504418	-0.0103794	2	-0.00132002	5.23554e-06
2	1	0	1	0	31.5413	-0.489609	-0.490425	-0.00932936	2	-0.00132136	4.57535e-06
2	1	0	1	0	31.6813	-0.475614	-0.476414	-0.00834631	2	-0.00132255	3.9763e-06
2	1	0	1	0	31.8213	-0.461619	-0.46242	-0.00725369	2	-0.00132361	3.35425e-06
2	1	0	1	0	31.9613	-0.447624	-0.448428	-0.00618188	2	-0.00132451	2.77213e-06
2	1	0	0	0	32.1166	-0.43208	-0.432906	-0.00483211	2	-0.00132532	2.09185e-06
2	1	0	1	0	32.2721	-0.416536	-0.41733	-0.00336998	2	-0.00132594	1.40639e-06
2	1	0	1	0	32.4121	-0.402541	-0.403326	-0.00221277	2	-0.00132633	8.92469e-07
2	1	0	1	0	32.5521	-0.388546	-0.389339	-0.00105179	2	-0.00132656	4.09505e-07
2	1	0	0	0	32.6919	-0.374551	-0.375334	0.000105438	2	-0.00132662	3.95745e-08
2	1	0	0	0	32.8319	-0.360556	-0.361342	0.00122919	2	-0.00132653	4.44159e-07
2	1	0	0	0	32.9719	-0.346561	-0.347343	0.00233399	2	-0.00132628	8.10697e-07
2	1	0	0	0	33.1119	-0.332566	-0.33333	0.00342391	2	-0.00132587	1.14129e-06
2	1	0	1	0	33.2517	-0.318571	-0.319325	0.00454379	2	-0.00132531	1.45094e-06
2	1	0	1	0	33.3917	-0.304576	-0.305335	0.00567358	2	-0.0013246	1.73234e-06
2	1	0	1	0	33.5317	-0.290581	-0.291326	0.0069037	2	-0.00132372	2.01123e-06
2	1	0	1	0	33.6717	-0.276586	-0.277334	0.00820243	2	-0.00132266	2.27481e-06
2	1	0	0	0	33.8115	-0.262591	-0.26334	0.00959949	2	-0.00132142	2.52793e-06
2	1	0	1	0	33.9825	-0.245497	-0.246296	0.0111364	2	-0.00131962	2.74285e-06
2	1	0	1	0	34.1225	-0.231502	-0.232275	0.0128115	2	-0.0013179	2.97579e-06
2	1	0	1	0	34.2625	-0.217507	-0.218282	0.0144011	2	-0.00131596	3.14351e-06
2	1	0	0	0	34.4023	-0.203512	-0.204302	0.0161047	2	-0.00131379	3.29022e-06
2	1	0	0	0	34.5423	-0.189517	-0.190279	0.0177775	2	-0.00131138	3.38268e-06
2	1	0	0	0	34.6823	-0.175522	-0.176291	0.0193893	2	-0.00130875	3.41816e-06
2	1	0	0	0	34.8223	-0.161527	-0.162306	0.0207782	2	-0.0013059	3.37243e-06
2	1	0	1	0	34.9621	-0.147532	-0.148312	0.0218313	2	-0.00130288	3.23784e-06
2	1	0	1	0	35.1021	-0.133537	-0.134287	0.0223517	2	-0.00129974	3.00154e-06
2	1	0	1	0	35.2421	-0.119542	-0.120337	0.0221696	2	-0.00129658	2.66782e-06
2	1	0	1	0	35.3821	-0.105547	-0.106345	0.0214161	2	-0.00129348	2.27748e-06
2	1	0	0	0	35.5219	-0.0915517	-0.0923196	0.0202365	2	-0.00129052	1.86823e-06
2	1	0	0	0	35.6619	-0.0775567	-0.0783295	0.0188394	2	-0.00128775	1.47568e-06
2	1	0	0	0	35.8019	-0.0635617	-0.0643356	0.0174384	2	-0.00128518	1.12191e-06
2	1	0	0	0	35.9419	-0.0495667	-0.0503396	0.0162844	2	-0.00128278	8.19753e-07
2	1	0	0	0	35.9918	-0.0445707	-0.0453467	0.0159487	2	-0.00128196	7.23222e-07

File: mg6_1_2.mpt
EC-Lab ASCII FILE
Nb header lines : 54

Cyclic Voltammetry

Run on channel : 1 (SN 0696)
User :
Electrode connection : standard
Ewe ctrl range : min = -2.50 V, max = 2.50 V
Ewe,I filtering : 50 kHz
Channel : Grounded
Acquisition started on : 01/18/2017 14:27:37
Saved on :
	File : mg6_1.mpr
	Directory : H:\EC-Lab\Data\Resazurin Bulk 18-1-17\
	Host : 144.32.136.43
Device : SP-300 (SN 0182)
Address : USB
EC-Lab for windows v10.44 (software)
Internet server v10.44 (firmware)
Command interpretor v10.44 (firmware)
Electrode material :
Initial state :
Electrolyte :
Comments :
Cable : standard
Reference electrode : SCE Saturated Calomel Electrode (0.241 V)
Electrode surface area : 0.001 cm²
Characteristic mass : 0.001 g
Equivalent Weight : 0.000 g/eq.
Density : 0.000 g/cm3
Ei (V)              0.000
vs.                 Eoc
dE/dt               100.000
dE/dt unit          mV/s
E1 (V)              0.000
vs.                 Ref
Step percent        50
N                   10
E range min (V)     -2.500
E range max (V)     2.500
I Range             Auto
I Range min         Unset
I Range max         Unset
I Range init        Unset
Bandwidth           8
E2 (V)              -0.900
vs.                 Ref
nc cycles           2
Reverse Scan        1
Ef (V)              0.000
vs.                 Eoc

mode	ox/red	error	control changes	counter inc.	time/s	control/V	Ewe/V	<I>/mA	cycle number	(Q-Qo)/C	P/W
2	1	0	0	1	17.9966	-0.0382207	-0.0390127	0.0189305	2	-0.000858951	7.38532e-07
2	1	0	1	1	18.1321	-0.0246756	-0.0254364	0.0175958	2	-0.000856451	4.47574e-07
2	1	0	1	1	18.2721	-0.0106806	-0.0114631	0.0165216	2	-0.000854033	1.8939e-07
2	0	0	1	1	18.3945	-0.00158383	-0.00244139	0.0127627	2	-0.000852068	3.11589e-08
2	0	0	1	1	18.5345	-0.0155788	-0.0164412	0.00814787	2	-0.000850694	1.3396e-07
2	0	0	1	1	18.6745	-0.0295738	-0.030424	0.00575704	2	-0.00084976	1.75152e-07
2	0	0	1	1	18.8453	-0.0466677	-0.0475158	0.00351738	2	-0.000849001	1.67131e-07
2	0	0	1	1	18.9853	-0.0606627	-0.0615235	0.0022529	2	-0.000848601	1.38606e-07
2	0	0	1	1	19.1253	-0.0746577	-0.0755292	0.00113288	2	-0.000848367	8.55653e-08
2	0	0	1	1	19.2653	-0.0886527	-0.0895239	0.000148237	2	-0.000848279	1.32708e-08
2	0	0	0	1	19.4051	-0.102648	-0.103524	-0.000788114	2	-0.000848325	8.15889e-08
2	0	0	0	1	19.5451	-0.116643	-0.11753	-0.00172101	2	-0.000848501	2.0227e-07
2	0	0	0	1	19.6851	-0.130638	-0.131507	-0.00266411	2	-0.000848807	3.50348e-07
2	0	0	0	1	19.8251	-0.144633	-0.145511	-0.00365429	2	-0.00084925	5.31738e-07
2	0	0	1	1	19.9649	-0.158628	-0.159503	-0.00476338	2	-0.00084984	7.59773e-07
2	0	0	1	1	20.1049	-0.172623	-0.173519	-0.006015	2	-0.000850595	1.04372e-06
2	0	0	1	1	20.2449	-0.186618	-0.187497	-0.0073893	2	-0.000851534	1.38547e-06
2	0	0	1	1	20.3849	-0.200613	-0.201514	-0.0089213	2	-0.000852677	1.79777e-06
2	0	0	1	1	20.5557	-0.217707	-0.218601	-0.0105726	2	-0.00085436	2.31117e-06
2	0	0	1	1	20.6957	-0.231702	-0.232568	-0.0120897	2	-0.000855984	2.81168e-06
2	0	0	1	1	20.8357	-0.245697	-0.246591	-0.0135911	2	-0.000857819	3.35145e-06
2	0	0	1	1	20.9757	-0.259692	-0.260591	-0.0150423	2	-0.000859854	3.91987e-06
2	0	0	0	1	21.1155	-0.273687	-0.274589	-0.0163066	2	-0.000862076	4.47762e-06
2	0	0	0	1	21.2555	-0.287682	-0.288555	-0.0175818	2	-0.000864484	5.07332e-06
2	0	0	0	1	21.3955	-0.301677	-0.302555	-0.0188985	2	-0.000867071	5.71783e-06
2	0	0	0	1	21.5355	-0.315672	-0.316538	-0.0201902	2	-0.000869842	6.39098e-06
2	0	0	1	1	21.6753	-0.329667	-0.330559	-0.021588	2	-0.000872798	7.13612e-06
2	0	0	1	1	21.8153	-0.343662	-0.344539	-0.0230233	2	-0.000875954	7.93243e-06
2	0	0	1	1	21.9553	-0.357657	-0.358563	-0.0245288	2	-0.000879316	8.79512e-06
2	0	0	1	1	22.0953	-0.371652	-0.372538	-0.0260653	2	-0.000882893	9.71032e-06
2	0	0	0	1	22.2351	-0.385647	-0.38654	-0.0276637	2	-0.000886685	1.06931e-05
2	0	0	0	1	22.3751	-0.399642	-0.400538	-0.0293232	2	-0.000890706	1.17451e-05
2	0	0	0	1	22.5151	-0.413637	-0.414528	-0.0308927	2	-0.00089495	1.28059e-05
2	0	0	0	1	22.6551	-0.427632	-0.428529	-0.0324257	2	-0.000899416	1.38954e-05
2	0	0	1	1	22.7949	-0.441627	-0.442521	-0.0340429	2	-0.000904095	1.50647e-05
2	0	0	1	1	22.9349	-0.455622	-0.456499	-0.0355916	2	-0.000908998	1.62476e-05
2	0	0	1	1	23.0749	-0.469617	-0.470513	-0.0370817	2	-0.000914116	1.74474e-05
2	0	0	1	1	23.2149	-0.483612	-0.484494	-0.0386319	2	-0.000919448	1.87169e-05
2	0	0	0	1	23.3547	-0.497607	-0.498501	-0.0401224	2	-0.000924985	2.00011e-05
2	0	0	0	1	23.4947	-0.511602	-0.512495	-0.0416407	2	-0.000930745	2.13406e-05
2	0	0	0	1	23.6347	-0.525597	-0.526497	-0.0432562	2	-0.000936722	2.27743e-05
2	0	0	0	1	23.7747	-0.539592	-0.54049	-0.0448826	2	-0.000942922	2.42586e-05
2	0	0	1	1	23.9145	-0.553587	-0.554481	-0.0465641	2	-0.000949348	2.58189e-05
2	0	0	1	1	24.0545	-0.567582	-0.568468	-0.0483852	2	-0.000956025	2.75054e-05
2	0	0	1	1	24.1945	-0.581577	-0.582464	-0.0502518	2	-0.000962961	2.92699e-05
2	0	0	1	1	24.3345	-0.595572	-0.596458	-0.0523052	2	-0.000970172	3.11978e-05
2	0	0	0	1	24.4743	-0.609567	-0.610469	-0.0545469	2	-0.000977674	3.32992e-05
2	0	0	0	1	24.6143	-0.623562	-0.624465	-0.0569998	2	-0.000985518	3.55944e-05
2	0	0	0	1	24.7543	-0.637557	-0.638464	-0.0598217	2	-0.00099373	3.8194e-05
2	0	0	0	1	24.8943	-0.651552	-0.652459	-0.0629823	2	-0.00100235	4.10934e-05
2	0	0	1	1	25.0341	-0.665547	-0.666441	-0.0664094	2	-0.00101143	4.4258e-05
2	0	0	1	1	25.1741	-0.679542	-0.68042	-0.0702465	2	-0.00102102	4.77971e-05
2	0	0	1	1	25.3141	-0.693537	-0.694422	-0.0744105	2	-0.00103118	5.16723e-05
2	0	0	1	1	25.4541	-0.707532	-0.708434	-0.0790507	2	-0.00104195	5.60021e-05
2	0	0	0	1	25.5939	-0.721527	-0.722432	-0.0842474	2	-0.0010534	6.0863e-05
2	0	0	0	1	25.7339	-0.735522	-0.736431	-0.0900088	2	-0.00106563	6.62853e-05
2	0	0	0	1	25.8739	-0.749517	-0.750407	-0.0964455	2	-0.00107871	7.23734e-05
2	0	0	0	1	26.0447	-0.76661	-0.767457	-0.104698	2	-0.00109593	8.03511e-05
2	0	0	0	1	26.1847	-0.780605	-0.781472	-0.112812	2	-0.00111126	8.81598e-05
2	0	0	0	1	26.3247	-0.7946	-0.795452	-0.122056	2	-0.0011278	9.70896e-05
2	0	0	0	1	26.4647	-0.808595	-0.809444	-0.132222	2	-0.0011457	0.000107027
2	0	0	0	1	26.6046	-0.8226	-0.823474	-0.143784	2	-0.0011651	0.000118402
2	0	0	1	1	26.7445	-0.836585	-0.83744	-0.156557	2	-0.0011862	0.000131107
2	0	0	1	1	26.8845	-0.85058	-0.851423	-0.171221	2	-0.00120925	0.000145781
2	0	0	1	1	27.0245	-0.864575	-0.865426	-0.188185	2	-0.00123451	0.000162861
2	0	0	0	1	27.1643	-0.87857	-0.879436	-0.207898	2	-0.00126229	0.000182833
2	0	0	0	1	27.3043	-0.892565	-0.893403	-0.230739	2	-0.00129307	0.000206143
2	1	0	1	0	27.4349	-0.894465	-0.895311	-0.226184	2	-0.00132393	0.000202505
2	1	0	1	0	27.5749	-0.88047	-0.881313	-0.194594	2	-0.00135317	0.000171499
2	1	0	0	0	27.7147	-0.866475	-0.86733	-0.169327	2	-0.00137843	0.000146863
2	1	0	0	0	27.8547	-0.85248	-0.853329	-0.148235	2	-0.0014005	0.000126493
2	1	0	0	0	27.9947	-0.838485	-0.839326	-0.130243	2	-0.00141985	0.000109316
2	1	0	0	0	28.1347	-0.82449	-0.825325	-0.114991	2	-0.00143688	9.49045e-05
2	1	0	1	0	28.2745	-0.810495	-0.811337	-0.101979	2	-0.0014519	8.27391e-05
2	1	0	1	0	28.4145	-0.7965	-0.797324	-0.0907056	2	-0.00146526	7.23218e-05
2	1	0	1	0	28.5545	-0.782505	-0.783361	-0.0811161	2	-0.00147715	6.35432e-05
2	1	0	1	0	28.6945	-0.76851	-0.769369	-0.0725431	2	-0.00148777	5.58124e-05
2	1	0	0	0	28.8343	-0.754515	-0.755361	-0.0653037	2	-0.00149728	4.93279e-05
[...]
2	1	0	0	0	29.2543	-0.71253	-0.713371	-0.0484508	2	-0.00152059	3.45634e-05
2	1	0	0	0	29.4251	-0.695436	-0.696249	-0.042831	2	-0.00152827	2.9821e-05
2	1	0	0	0	29.5651	-0.681441	-0.682244	-0.0390323	2	-0.00153396	2.66295e-05
2	1	0	0	0	29.7051	-0.667446	-0.668268	-0.0356694	2	-0.00153915	2.38367e-05
2	1	0	1	0	29.8449	-0.653451	-0.654263	-0.0325837	2	-0.00154389	2.13183e-05
2	1	0	1	0	29.9849	-0.639456	-0.640261	-0.0298765	2	-0.00154822	1.91288e-05
2	1	0	1	0	30.1249	-0.625461	-0.626262	-0.0273918	2	-0.0015522	1.71544e-05
2	1	0	1	0	30.2649	-0.611466	-0.612256	-0.0251665	2	-0.00155584	1.54083e-05
2	1	0	0	0	30.4047	-0.597471	-0.598258	-0.0231159	2	-0.00155918	1.38293e-05
2	1	0	0	0	30.5447	-0.583476	-0.584265	-0.0212949	2	-0.00156226	1.24418e-05
2	1	0	0	0	30.6847	-0.569481	-0.570272	-0.0195628	2	-0.00156509	1.11561e-05
2	1	0	0	0	30.8247	-0.555486	-0.556268	-0.0180303	2	-0.00156768	1.00297e-05
2	1	0	1	0	30.9645	-0.541491	-0.542305	-0.0164635	2	-0.00157006	8.92825e-06
2	1	0	1	0	31.1045	-0.527496	-0.528295	-0.015094	2	-0.00157224	7.97405e-06
2	1	0	1	0	31.2445	-0.513501	-0.5143	-0.0136538	2	-0.00157422	7.02218e-06
2	1	0	1	0	31.3845	-0.499506	-0.500296	-0.0123149	2	-0.001576	6.16109e-06
2	1	0	0	0	31.5243	-0.485511	-0.486287	-0.0109468	2	-0.0015776	5.32328e-06
2	1	0	0	0	31.6643	-0.471516	-0.4723	-0.00966317	2	-0.00157901	4.56391e-06
2	1	0	0	0	31.8043	-0.457521	-0.4583	-0.00832144	2	-0.00158023	3.81372e-06
2	1	0	0	0	31.9443	-0.443526	-0.44431	-0.00700123	2	-0.00158127	3.11072e-06
2	1	0	1	0	32.0841	-0.429531	-0.430336	-0.00568506	2	-0.00158213	2.44648e-06
2	1	0	0	0	32.2551	-0.412437	-0.41323	-0.0039181	2	-0.00158293	1.61908e-06
2	1	0	0	0	32.3951	-0.398442	-0.39922	-0.00262088	2	-0.00158339	1.04631e-06
2	1	0	0	0	32.5351	-0.384447	-0.385231	-0.00135781	2	-0.00158367	5.23069e-07
2	1	0	1	0	32.6749	-0.370452	-0.371233	-0.000102712	2	-0.00158377	3.81302e-08
2	1	0	1	0	32.8149	-0.356457	-0.357241	0.00111426	2	-0.0015837	3.9806e-07
2	1	0	1	0	32.9549	-0.342462	-0.343232	0.0023089	2	-0.00158346	7.92488e-07
2	1	0	1	0	33.0949	-0.328467	-0.329244	0.00346924	2	-0.00158305	1.14223e-06
2	1	0	0	0	33.2347	-0.314472	-0.315233	0.00463502	2	-0.00158248	1.46111e-06
2	1	0	0	0	33.3747	-0.300477	-0.30123	0.00582177	2	-0.00158175	1.7537e-06
2	1	0	0	0	33.5147	-0.286482	-0.287241	0.00709955	2	-0.00158085	2.03928e-06
2	1	0	0	0	33.6547	-0.272487	-0.273243	0.00848977	2	-0.00157975	2.31977e-06
2	1	0	1	0	33.7945	-0.258492	-0.259253	0.0100174	2	-0.00157846	2.59703e-06
2	1	0	0	0	33.9655	-0.241398	-0.24218	0.0118989	2	-0.00157657	2.88168e-06
2	1	0	0	0	34.1055	-0.227403	-0.22819	0.0137026	2	-0.00157475	3.1268e-06
2	1	0	0	0	34.2455	-0.213408	-0.214199	0.015613	2	-0.00157267	3.34428e-06
2	1	0	1	0	34.3853	-0.199413	-0.200196	0.0175299	2	-0.00157032	3.50942e-06
2	1	0	1	0	34.5253	-0.185418	-0.186191	0.0195397	2	-0.00156769	3.63811e-06
2	1	0	1	0	34.6653	-0.171423	-0.172216	0.0215	2	-0.00156479	3.70265e-06
2	1	0	1	0	34.8053	-0.157428	-0.158195	0.0234967	2	-0.0015616	3.71705e-06
2	1	0	0	0	34.9451	-0.143433	-0.144209	0.0253494	2	-0.00155815	3.6556e-06
2	1	0	0	0	35.0851	-0.129438	-0.130225	0.0268355	2	-0.00155446	3.49464e-06
2	1	0	0	0	35.2251	-0.115443	-0.116244	0.0276624	2	-0.00155061	3.2156e-06
2	1	0	0	0	35.3651	-0.101448	-0.102219	0.0277135	2	-0.00154668	2.83286e-06
2	1	0	1	0	35.5049	-0.0874531	-0.0882224	0.0268578	2	-0.00154283	2.36946e-06
2	1	0	1	0	35.6449	-0.0734581	-0.0742373	0.0253137	2	-0.00153914	1.87922e-06
2	1	0	1	0	35.7849	-0.0594631	-0.0602449	0.0234854	2	-0.00153569	1.41487e-06
2	1	0	1	0	35.9249	-0.0454681	-0.0462391	0.0217151	2	-0.0015325	1.00409e-06
2	1	0	1	0	35.9933	-0.0386189	-0.0393976	0.0208894	2	-0.00153103	8.22993e-07